"Time (s)","Linear Acceleration x (m/s^2)","Linear Acceleration y (m/s^2)","Linear Acceleration z (m/s^2)","Absolute acceleration (m/s^2)"
7.924708305E-3,6.529413226E-1,3.828704184E-1,-1.903549946E0,2.048517641E0
1.793770841E-2,8.639281592E-1,5.617189112E-1,-1.674986379E0,1.966590799E0
2.795170841E-2,7.723286024E-1,7.466394451E-1,-1.457186952E0,1.810346857E0
3.796570841E-2,4.996860927E-1,9.120399266E-1,-1.286833586E0,1.654522196E0
4.797970841E-2,8.112748593E-2,1.168036875E0,-1.023396640E0,1.555066717E0
5.799370841E-2,-2.617798448E-1,1.421995192E0,-6.249831533E-1,1.575183467E0
6.800770841E-2,-3.244663820E-1,1.544832621E0,-1.772109801E-1,1.588455222E0
7.802070840E-2,-3.151149300E-1,1.564333085E0,1.960162103E-1,1.607749289E0
8.803470840E-2,-2.667552406E-1,1.690131252E0,3.719238460E-1,1.751008097E0
9.804870840E-2,-1.653855711E-1,1.885589054E0,4.565254551E-1,1.947103992E0
1.080627084E-1,-4.656985670E-2,1.999545147E0,6.223331952E-1,2.094671371E0
1.180767084E-1,3.370919824E-4,1.975230963E0,8.954841202E-1,2.168739099E0
1.280897084E-1,-1.447829068E-1,1.903695542E0,1.304295711E0,2.312186434E0
1.381037084E-1,-5.146321607E-1,1.790910353E0,1.754785670E0,2.559585689E0
1.481177084E-1,-1.039908593E0,1.630066314E0,2.159080871E0,2.898302310E0
1.581317084E-1,-1.428214875E0,1.611798736E0,2.464556374E0,3.272878093E0
1.681457084E-1,-1.561175004E0,1.613130147E0,2.558991830E0,3.404099800E0
1.781597084E-1,-1.593749258E0,1.509356394E0,2.563404724E0,3.374794394E0
1.881727084E-1,-1.433705411E0,1.426391129E0,2.420806337E0,3.154426442E0
1.981867084E-1,-1.079840398E0,1.578755243E0,2.126555734E0,2.860203261E0
2.082007084E-1,-8.580239332E-1,1.831757247E0,1.810727152E0,2.714824580E0
2.182147084E-1,-8.423425779E-1,1.835363225E0,1.748485295E0,2.671198236E0
2.282287084E-1,-9.871298701E-1,1.476021710E0,2.059865901E0,2.719579563E0
2.382417084E-1,-1.405798112E0,9.118905303E-1,2.418534109E0,2.942298406E0
2.482557084E-1,-1.954208176E0,4.743091768E-1,2.842864795E0,3.482208930E0
2.582697084E-1,-2.333381400E0,2.675510466E-2,3.081786704E0,3.865591013E0
2.682837084E-1,-2.578005514E0,-4.044665247E-1,2.915507094E0,3.912785097E0
2.782977084E-1,-2.482831262E0,-6.740839773E-1,2.477519066E0,3.571686017E0
2.883117084E-1,-2.858857514E0,-9.150114816E-1,2.133162503E0,3.682484835E0
2.983247084E-1,-3.288565300E0,-1.109522619E0,1.688790486E0,3.859755883E0
3.083387084E-1,-2.719190921E0,-1.125801267E0,7.060138679E-1,3.026529917E0
3.183527084E-1,-2.421151323E0,-1.397143064E0,-9.445416749E-2,2.796945487E0
3.283667084E-1,-2.175368583E0,-1.492871339E0,-5.521350324E-1,2.695504851E0
3.383807084E-1,-1.869075640E0,-1.347541718E0,-1.053353096E0,2.533547942E0
3.483947084E-1,-1.739403107E0,-1.415769077E0,-1.624268800E0,2.769146869E0
3.584077084E-1,-3.897929663E0,-3.412944932E0,-1.437745544E0,5.376724004E0
3.684217084E-1,-3.671599440E0,-3.650735990E0,-1.808905159E0,5.484583265E0
3.784357083E-1,-1.744207180E0,-2.087281156E0,-1.090791063E0,2.930669967E0
3.884497083E-1,-9.745612800E-1,-1.343412999E0,-4.685034764E-1,1.724535787E0
3.984637083E-1,-4.546473294E-1,-1.333370991E0,-5.273019075E-1,1.504204007E0
4.084767083E-1,-4.888450626E-1,-1.622953761E0,-6.399619657E-1,1.811767017E0
4.184907083E-1,-5.758389138E-1,-1.903951650E0,-7.338290727E-1,2.120171561E0
4.285047083E-1,-5.932909521E-1,-1.934656549E0,-5.207319760E-1,2.089509968E0
4.385187083E-1,-4.903018963E-1,-1.848075072E0,-3.693235892E-1,1.947351364E0
4.485327083E-1,-2.460486419E-1,-1.742074408E0,-4.389610040E-1,1.813298084E0
4.585467083E-1,1.346290706E-1,-1.598035852E0,-6.482854772E-1,1.729773867E0
4.685597083E-1,4.767581369E-1,-1.388901998E0,-7.949698985E-1,1.669827602E0
4.785737083E-1,4.169183166E-1,-1.245828232E0,-1.010300632E0,1.657291837E0
4.885877083E-1,1.609820330E-1,-9.368444002E-1,-8.901169610E-1,1.302267580E0
4.986017083E-1,1.036338575E-1,-5.218791997E-1,-5.209565091E-1,7.446432434E-1
5.086157083E-1,5.591295449E-1,-1.059061148E0,-7.539446640E-1,1.415156853E0
5.186287083E-1,9.661497679E-1,-1.448538335E0,-4.127134377E-1,1.789424786E0
5.286427083E-1,5.594478527E-1,-1.279327515E0,-7.125943244E-2,1.398119701E0
5.386567083E-1,7.707112625E-2,-1.237767261E0,-3.887579799E-1,1.299669388E0
5.486707083E-1,-8.056396052E-2,-1.428771238E0,-1.241836338E0,1.894738845E0
5.586847083E-1,1.110767783E-1,-1.464767867E0,-1.858491302E0,2.368939188E0
5.686987083E-1,6.026203309E-1,-1.191463160E0,-1.773875660E0,2.220218589E0
5.787117083E-1,7.750216837E-1,-7.193437654E-1,-1.502443231E0,1.837239703E0
5.887255834E-1,1.314327048E0,-3.842462683E-1,-8.628443778E-1,1.618518212E0
5.987395834E-1,2.014796147E0,-1.959454590E-1,3.398039210E-1,2.052623892E0
6.087535834E-1,2.113576085E0,8.233639777E-2,1.050863351E0,2.361841852E0
6.187675834E-1,1.707939240E0,3.561164832E-1,1.057813352E0,2.040304998E0
6.287805834E-1,1.194195856E0,3.869991374E-1,1.299428489E0,1.806761321E0
6.387945834E-1,9.377080339E-1,2.609331679E-1,1.890861488E0,2.126673374E0
6.488085834E-1,9.047835320E-1,1.722309065E-1,2.174637973E0,2.361640752E0
6.588225834E-1,1.364708851E0,1.775676602E-1,2.177524159E0,2.575960400E0
6.688365834E-1,2.076003339E0,3.805537516E-1,1.896590005E0,2.837545536E0
6.788495834E-1,2.577952889E0,5.550984013E-1,1.568215052E0,3.068105895E0
6.888635834E-1,2.830705802E0,6.996497583E-1,1.044312131E0,3.097255713E0
6.988775834E-1,2.876381912E0,8.182283682E-1,2.960860437E-1,3.005118552E0
7.088915834E-1,2.820046328E0,8.906356090E-1,-2.813177311E-1,2.970695667E0
7.189055834E-1,2.611611216E0,1.080449093E0,-4.349159002E-1,2.859551578E0
7.289195834E-1,2.397368942E0,1.339658502E0,-3.086072713E-1,2.763566753E0
7.389325834E-1,2.254471763E0,1.380125912E0,1.559218526E-2,2.643413244E0
7.489465834E-1,2.016191001E0,1.275288259E0,4.962590396E-1,2.436731280E0
7.589605834E-1,1.961060820E0,1.126754948E0,8.828026789E-1,2.427895554E0
7.689745834E-1,2.137982655E0,1.008588567E0,1.063920768E0,2.592324851E0
7.789885834E-1,2.390441161E0,9.948388392E-1,1.109177048E0,2.816768891E0
7.890015834E-1,2.517097700E0,1.250166281E0,1.302228135E0,3.097498132E0
7.990155834E-1,2.610661629E0,1.551489092E0,1.335597026E0,3.317603345E0
8.090295834E-1,2.730454413E0,1.531691589E0,1.631362057E0,3.530269478E0
8.190435834E-1,2.487605806E0,1.168402911E0,2.401812826E0,3.649938747E0
8.290575834E-1,1.929375636E0,6.705294549E-1,3.183402834E0,3.782347643E0
8.390715834E-1,1.539167839E0,3.108642966E-1,3.786794266E0,4.099449361E0
8.490845833E-1,1.580564371E0,-3.824079037E-4,4.192588693E0,4.480623152E0
8.590985833E-1,1.864189999E0,-4.148394853E-1,4.295261123E0,4.700698274E0
8.691125833E-1,2.150242805E0,-8.581806386E-1,3.937883103E0,4.568034748E0
8.791265833E-1,2.680622979E0,-1.124164047E0,3.251396596E0,4.361314502E0
8.891405833E-1,3.247207358E0,-1.331091746E0,2.350302365E0,4.223752132E0
8.991535833E-1,3.407639461E0,-1.603845060E0,1.845343545E0,4.193997911E0
9.091675833E-1,3.071769254E0,-2.013158342E0,1.440720315E0,3.945154989E0
9.191815833E-1,2.375508542E0,-2.400948608E0,1.311895337E0,3.623349890E0
9.291955833E-1,1.630062514E0,-2.810095244E0,1.290121329E0,3.495447342E0
9.392095833E-1,9.466083732E-1,-3.037284130E0,1.684395426E0,3.599770861E0
9.492225833E-1,6.918238449E-1,-3.239179716E0,1.356192820E0,3.579129004E0
9.592365833E-1,3.286474335E-1,-3.755773033E0,1.417912374E0,4.027941870E0
9.692505833E-1,6.376096308E-3,-3.958080847E0,1.388056490E0,4.194418371E0
9.792645833E-1,-6.320106295E-1,-3.929511352E0,1.155827304E0,4.144446122E0
9.892785833E-1,-2.911813992E0,-3.113592049E0,9.748178266E-2,4.264108215E0
9.992915833E-1,-4.962177583E0,-3.214928974E0,-9.572236278E-1,5.989595291E0
1.009305583E0,-5.964610201E0,-3.787956108E0,-3.139098773E0,7.731696284E0
1.019319583E0,-7.443427173E0,-3.198766100E0,-3.950323931E0,9.013421759E0
1.029333583E0,-6.178523569E0,-3.416456770E0,-5.669901177E0,9.055059895E0
1.039347583E0,-4.683311005E0,-3.563787893E0,-6.389303999E0,8.686609909E0
1.049361583E0,-4.149915421E0,-3.427281720E0,-6.079148970E0,8.119366366E0
1.059374583E0,-3.351992094E0,-3.549586176E0,-4.217428250E0,6.451520291E0
1.069388583E0,-2.805758072E0,-2.841194245E0,-2.200756316E0,4.559384987E0
1.079402583E0,-2.454825145E0,-2.221336176E0,1.931920052E-2,3.310721090E0
1.089416583E0,-1.247461652E0,-2.023170530E0,2.238857943E0,3.265251055E0
1.099430583E0,1.061421376E0,-2.434623892E0,3.274875798E0,4.216493843E0
1.109443583E0,3.757093334E0,-4.041035296E0,3.313929352E0,6.436446561E0
1.119457583E0,4.069981937E0,-4.872946733E0,3.889395944E0,7.445654010E0
1.129471583E0,3.124252108E0,-4.189169827E0,4.413644435E0,6.840347379E0
1.139485583E0,2.237266915E0,-4.165102687E0,3.625826851E0,5.958193014E0
1.149499583E0,1.698605914E0,-4.465882291E0,2.184996901E0,5.253910747E0
1.159512583E0,1.724616669E0,-3.959315194E0,7.837760619E-1,4.389166707E0
1.169526583E0,1.713875333E0,-3.343010479E0,-6.223167499E-1,3.807934592E0
1.179540583E0,1.889282155E0,-2.820769921E0,-1.108241494E0,3.571320374E0
1.189554583E0,1.246330508E0,-2.215293079E0,-2.059043198E0,3.271165244E0
1.199568583E0,3.345323637E-1,-2.109179564E0,-2.777361946E0,3.503468241E0
1.209582583E0,1.734719780E-1,-1.897712671E0,-3.326665757E0,3.833811545E0
1.219595583E0,2.720487249E-1,-1.241946850E0,-3.952626565E0,4.152071681E0
1.229609583E0,7.336209118E-2,-7.099408579E-1,-4.723267368E0,4.776887339E0
1.239623583E0,-1.549617398E-1,-5.022670537E-1,-4.992377282E0,5.019971739E0
1.249637583E0,-3.904276523E-1,-3.217570746E-1,-4.886418718E0,4.912540000E0
1.259651583E0,-1.156918687E0,-1.776559532E-2,-4.752860126E0,4.891672091E0
1.269664583E0,-1.700952694E0,3.786908287E-1,-4.318587420E0,4.656913583E0
1.279678583E0,-2.428042559E0,9.012003583E-1,-4.098279537E0,4.848035470E0
1.289692583E0,-3.391308772E0,1.533748639E0,-3.949356802E0,5.426857214E0
1.299706583E0,-3.780200361E0,2.214067503E0,-3.620712876E0,5.683447141E0
1.309720583E0,-2.801756530E0,2.214984346E0,-3.595261116E0,5.067731031E0
1.319733583E0,-1.254209631E0,2.322146267E0,-2.817855084E0,3.860791675E0
1.329747583E0,-9.409356970E-1,2.730267302E0,-2.064433161E0,3.549873773E0
1.339761583E0,-1.487589111E0,2.214953356E0,-1.994685234E0,3.331322397E0
1.349775583E0,-1.024445485E0,1.759786794E0,-2.154431019E0,2.964441115E0
1.359789583E0,1.559087694E0,1.397797952E0,-9.211877494E-1,2.287614570E0
1.369803583E0,4.466814044E0,2.266517027E0,2.008323280E0,5.396562752E0
1.379816583E0,3.492376141E0,2.533698530E0,2.837497051E0,5.164078704E0
1.389830583E0,7.704491611E-1,1.481178077E0,2.978220820E0,3.414275862E0
1.399844583E0,-1.886921049E0,1.150271865E0,2.538749939E0,3.365835359E0
1.409858583E0,-3.274080285E0,9.342149073E-1,2.548361592E0,4.252823298E0
1.419872583E0,-2.864158892E0,1.417350456E0,3.850782101E0,5.004079462E0
1.429885583E0,-3.163712335E0,1.168047985E0,3.334593119E0,4.742670461E0
1.439899583E0,-2.514088138E0,1.987553385E0,3.787297711E0,4.961313493E0
1.449913583E0,-2.643087948E0,2.373393019E0,2.772361700E0,4.506095618E0
1.459927583E0,-1.693345759E0,2.068301679E0,1.715692356E0,3.176301616E0
1.469941583E0,-7.721624684E-1,1.406869322E0,1.444337111E0,2.159079863E0
1.479954583E0,-4.154254494E-1,4.931179154E-1,2.361110504E0,2.447567445E0
1.489968583E0,5.381536089E-2,2.772112316E-1,3.607944019E0,3.618978061E0
1.499982583E0,2.803427079E-1,6.732250214E-2,4.756833017E0,4.765562370E0
1.509996583E0,-4.017544399E-1,-4.169438982E-1,4.831074237E0,4.865647658E0
1.520010583E0,-1.310446543E0,-1.201556039E-1,3.033666166E0,3.306786645E0
1.530023583E0,-1.323748228E0,3.282697034E-1,5.019264534E-1,1.453272354E0
1.540037583E0,-9.729075412E-1,5.109337968E-1,-1.504112758E0,1.862782225E0
1.550051583E0,-4.729850748E-1,4.763913703E-1,-2.400828448E0,2.492918140E0
1.560065583E0,-4.246277243E-2,9.614342809E-2,-2.749137436E0,2.751145814E0
1.570079583E0,6.335019618E-2,-3.454178327E-1,-1.942995847E0,1.974477042E0
1.580092583E0,5.273603797E-3,-5.441529983E-1,-2.339470983E-1,5.923356660E-1
1.590105833E0,1.526810333E-1,-8.672245270E-1,1.102082037E0,1.410664628E0
1.600119833E0,2.317514688E-2,-1.149690067E0,1.639262377E0,2.002374959E0
1.610133833E0,-2.841735113E-1,-1.244974539E0,1.303650763E0,1.824889448E0
1.620147833E0,-3.676790598E-1,-1.465096480E0,4.404730940E-1,1.573439587E0
1.630161833E0,-7.090333700E-3,-1.783314820E0,-4.937144776E-1,1.850409686E0
1.640174833E0,5.470435694E-1,-2.087394007E0,-8.754391341E-1,2.328704379E0
1.650188833E0,1.039081796E0,-2.397835550E0,-6.748014307E-1,2.699011537E0
1.660202833E0,1.175654043E0,-2.718244257E0,-6.333835557E-2,2.962267040E0
1.670216833E0,1.356414283E0,-3.098836015E0,3.490004218E-1,3.400653710E0
1.680230833E0,1.746086183E0,-3.147255639E0,4.550420165E-1,3.627822797E0
1.690243833E0,2.202040365E0,-3.067660416E0,2.787858868E-1,3.786455303E0
1.700257833E0,2.514669936E0,-3.253003703E0,2.744882564E-1,4.120793829E0
1.710271833E0,1.972673098E0,-3.221077321E0,6.805291439E-1,3.837954947E0
1.720285833E0,1.247881190E0,-2.907851334E0,1.032184421E0,3.328394737E0
1.730299833E0,9.524476951E-1,-2.615550778E0,6.582853854E-1,2.860350002E0
1.740312833E0,7.334554356E-1,-2.408411994E0,-1.406546994E-1,2.521544954E0
1.750326833E0,4.895172000E-2,-1.889710756E0,-5.523057711E-1,1.969376723E0
1.760340833E0,-1.021424375E0,-9.274046552E-1,-4.416800324E-1,1.448609126E0
1.770354833E0,-2.610214024E0,2.211913973E-1,3.570083298E-2,2.619812481E0
1.780368833E0,-4.298037965E0,1.440452220E0,-3.207314730E-2,4.533107283E0
1.790381833E0,-5.720173783E0,2.307575591E0,-1.183164134E0,6.280539036E0
1.800395833E0,-6.647909390E0,3.615577267E0,-2.386516510E0,7.934895040E0
1.810409833E0,-7.170248181E0,5.008631372E0,-2.963281184E0,9.234710747E0
1.820423833E0,-5.184503925E0,5.316979027E0,-2.911141562E0,7.976471157E0
1.830437833E0,-4.429576929E0,4.818890394E0,-1.575919343E0,6.732486775E0
1.840450833E0,-4.784730960E0,4.631529232E0,-9.494708776E-2,6.659859483E0
1.850464833E0,-5.684085352E0,4.639691361E0,8.130040272E-1,7.382177034E0
1.860478833E0,-7.753346559E0,4.796449950E0,1.445006178E0,9.230837332E0
1.870492833E0,-9.096795811E0,4.675197993E0,9.057946618E-1,1.026789337E1
1.880506833E0,-9.021242183E0,3.727805800E0,-6.498468299E-1,9.782721887E0
1.890520833E0,-8.585510012E0,2.553944514E0,-1.620195922E0,9.102672661E0
1.900533833E0,-7.327468700E0,1.813417456E0,-2.584277822E0,7.978644765E0
1.910547833E0,-4.816322882E0,1.116505364E0,-4.457862250E0,6.657032835E0
1.920561833E0,-9.462185101E-1,8.139943993E-1,-5.470845584E0,5.611422970E0
1.930575833E0,2.963473558E0,5.111717784E-1,-3.754870223E0,4.810667574E0
1.940589833E0,5.499148446E0,-8.273652273E-1,-8.385316551E-1,5.623904532E0
1.950602833E0,6.425199471E0,-2.632860290E0,1.690118681E0,7.146442661E0
1.960616833E0,6.409931806E0,-3.861880116E0,4.591538078E0,8.779724695E0
1.970630833E0,7.281224241E0,-4.768603170E0,6.306170626E0,1.074819011E1
1.980644833E0,9.637788974E0,-4.968851010E0,5.622032361E0,1.221407813E1
1.990658833E0,1.179928708E1,-4.793247430E0,4.457484227E0,1.349324135E1
2.000671833E0,1.091075238E1,-4.360221934E0,3.757744129E0,1.233599180E1
2.010685833E0,6.857881150E0,-2.803245816E0,4.357344519E0,8.595066738E0
2.020699833E0,4.085426772E0,-9.924660391E-1,4.318998479E0,6.027391527E0
2.030713833E0,3.059163827E0,2.671850109E-1,2.744511704E0,4.118521050E0
2.040727833E0,2.815890712E0,4.102599460E-1,7.344971171E-1,2.938884098E0
2.050740833E0,2.926615049E0,1.586554259E-1,-7.768891382E-1,3.032128613E0
2.060754833E0,3.257554591E0,-4.235307866E-1,-1.406593626E0,3.573450135E0
2.070768833E0,2.610404936E0,-1.089830366E0,-9.950791597E-2,2.830520443E0
2.080782833E0,1.309203571E0,-1.688510404E0,1.253173797E0,2.476999383E0
2.090796833E0,7.648071096E-1,-2.807684437E0,1.128375796E0,3.121098164E0
2.100809833E0,1.746242303E0,-3.844697489E0,1.150594631E0,4.376634434E0
2.110823833E0,2.615088848E0,-4.297790043E0,1.123890105E0,5.154882919E0
2.120837833E0,1.616128014E0,-4.567879951E0,1.218660022E0,4.996251520E0
2.130851833E0,-2.890924814E-1,-4.868326848E0,1.853725237E0,5.217324795E0
2.140865833E0,-1.659483072E0,-5.008170612E0,1.821050265E0,5.581387015E0
2.150878833E0,-2.095615046E0,-4.615268710E0,1.556770151E0,5.302437269E0
2.160892833E0,-2.378464602E0,-4.051097769E0,7.455083013E-1,4.756497622E0
2.170906833E0,-2.716183698E0,-3.571543640E0,1.037405692E-1,4.488244641E0
2.180920833E0,-2.174316376E0,-3.033368250E0,-6.179688334E-1,3.782969749E0
2.190934833E0,-2.016959617E0,-2.792988045E0,-1.001463150E0,3.587734210E0
2.200947833E0,-2.838063354E0,-2.342548372E0,-5.044401714E-1,3.714376982E0
2.210961833E0,-3.541240737E0,-1.350664131E0,1.605119169E-1,3.793473821E0
2.220975833E0,-3.509647646E0,-8.520229357E-1,2.239204390E-1,3.618523186E0
2.230989833E0,-2.137034529E0,-5.269294399E-1,-5.620808539E-1,2.271674735E0
2.241003833E0,7.881315798E-2,-6.293562859E-1,-1.598236557E0,1.719494386E0
2.251017833E0,1.775202101E0,-1.171162212E0,-1.353831568E0,2.521075830E0
2.261030833E0,2.054458396E0,-1.890757408E0,-8.055312856E-1,2.905966883E0
2.271044833E0,1.936385278E0,-2.150534581E0,-1.414184189E-1,2.897306697E0
2.281058833E0,2.298976968E0,-2.239604048E0,1.379369867E-1,3.212498716E0
2.291072833E0,2.146178698E0,-2.358104305E0,2.435122660E-1,3.197817559E0
2.301085833E0,2.068444351E0,-2.054794026E0,5.248775057E-1,2.962454543E0
2.311099833E0,2.085473782E0,-1.398102592E0,4.959595160E-1,2.559270910E0
2.321113833E0,2.089134139E-1,-8.147247165E-1,2.753021157E-1,8.849929001E-1
2.331127833E0,-2.492413094E0,3.011930019E-1,2.858994631E-1,2.526772399E0
2.341141833E0,-3.630896387E0,9.789022529E-1,-8.636958785E-1,3.858449010E0
2.351155833E0,-2.439068361E0,1.710597092E0,-2.415594714E0,3.835400201E0
2.361168833E0,-4.633427238E-1,2.103742238E0,-3.773767254E0,4.345312091E0
2.371182833E0,2.615757769E-1,1.862148736E0,-3.361585329E0,3.851788639E0
2.381196833E0,-9.722943145E-1,1.657302645E0,-2.434673155E0,3.101554717E0
2.391210833E0,-8.943246174E-1,1.366652173E0,-1.146737296E0,1.995635515E0
2.401224833E0,4.550361693E-1,4.505636340E-1,-1.312943158E0,1.460782407E0
2.411237833E0,8.975382471E-1,2.360298765E-1,-2.703511612E0,2.858366675E0
2.421251833E0,1.105261753E0,-3.798526704E-2,-2.739979527E0,2.954747744E0
2.431265833E0,3.389525664E-1,-5.102631211E-1,-2.424878923E0,2.501058793E0
2.441279833E0,-9.083854169E-1,1.329931659E-1,-7.300447547E-1,1.172952084E0
2.451293833E0,-2.674176716E0,-1.724186021E-1,1.199334188E-1,2.682411845E0
2.461306833E0,-3.936519824E0,-1.175445882E0,-1.489960011E0,4.370107800E0
2.471320833E0,-4.576032724E0,1.333377423E0,-6.175033951E-1,4.806171167E0
2.481334833E0,-3.749649829E0,6.915256369E-1,-1.591041412E0,4.131524455E0
2.491348833E0,-3.274612089E0,1.883930783E0,-1.611239449E0,4.107112379E0
2.501362833E0,-3.590189826E0,2.227707887E0,-1.655604029E0,4.537969823E0
2.511375833E0,-3.781993702E0,2.486312694E0,-1.919717095E-1,4.530130275E0
2.521389833E0,-3.943280375E0,1.895964353E0,1.632356669E0,4.669981717E0
2.531403833E0,-4.760549215E0,1.624486024E0,3.841255817E0,6.329062326E0
2.541417833E0,-4.243471749E0,1.924375682E0,5.143592126E0,6.940231567E0
2.551431833E0,-2.947566792E0,1.602340864E0,4.924346098E0,5.958593016E0
2.561444833E0,-1.993389491E0,1.369673137E0,4.321349645E0,4.952137813E0
2.571458833E0,-1.007510925E0,1.225802103E0,3.632822460E0,3.964223516E0
2.581472833E0,-2.260498488E-1,1.358207916E0,2.942952754E0,3.249122681E0
2.591487375E0,3.584612167E-1,8.900257444E-1,2.373410561E0,2.560023039E0
2.601501375E0,6.530065191E-1,3.038736579E-1,1.500339403E0,1.664264113E0
2.611514375E0,1.123682821E0,6.241379383E-1,1.654493058E0,2.095127329E0
2.621528375E0,1.157333547E0,7.012451711E-1,2.859233490E0,3.163286563E0
2.631542375E0,9.028188676E-1,3.818927640E-1,2.867114367E0,3.030060855E0
2.641556375E0,4.045711899E-1,2.520208418E-2,2.405624042E0,2.439536846E0
2.651570375E0,3.760946649E-1,2.312948012E-1,1.642040827E0,1.700365420E0
2.661583375E0,7.316977626E-1,-3.937936020E-1,8.139230633E-1,1.163153373E0
2.671597375E0,1.609386467E0,-5.080546278E-1,2.571921376E-1,1.707159073E0
2.681611375E0,2.526525750E0,-8.012176484E-2,2.117054594E-1,2.536645633E0
2.691625375E0,2.520131820E0,-1.535591389E-1,7.543715107E-1,2.635094149E0
2.701639375E0,2.409249900E0,-5.860825047E-1,4.895546222E-1,2.527378387E0
2.711652375E0,1.617945621E0,-2.983448231E-1,-1.780500555E-1,1.654829142E0
2.721666375E0,7.644275522E-1,-2.268672895E-1,-6.476060307E-1,1.027235037E0
2.731680375E0,5.574384570E-1,-6.510544261E-1,-1.382737863E0,1.626829277E0
2.741694375E0,6.813146442E-1,-6.746967655E-1,-2.110601606E0,2.318198549E0
2.751708375E0,1.019888896E0,-2.765604365E-1,-2.545926812E0,2.756519974E0
2.761721375E0,9.350756174E-1,-5.302851570E-1,-2.798117223E0,2.997503753E0
2.771735375E0,4.542514729E-1,-7.547511412E-1,-2.711351559E0,2.850863196E0
2.781749375E0,-1.121811712E-1,-1.242393285E0,-2.489041589E0,2.784143266E0
2.791763375E0,-2.798646981E-1,-1.253670810E0,-1.720920936E0,2.147459806E0
2.801777375E0,8.291240698E-1,-8.070461529E-1,-7.434787327E-1,1.375329358E0
2.811791375E0,1.987362181E0,-1.111811219E0,-2.049039781E-1,2.286420404E0
2.821804375E0,2.777815105E0,-1.421187399E0,2.768317473E-1,3.132517550E0
2.831818375E0,3.128784869E0,-1.565475047E0,9.289155757E-1,3.619791572E0
2.841832375E0,2.990636213E0,-1.786825488E0,1.248122095E0,3.700602525E0
2.851846375E0,2.351377668E0,-1.917673018E0,1.098319938E0,3.226879829E0
2.861860375E0,2.085484892E0,-1.786398495E0,9.588217449E-1,2.908574557E0
2.871873375E0,1.863812853E0,-1.822122790E0,8.997976112E-1,2.757456356E0
2.881887375E0,1.439982689E0,-1.918143719E0,8.318026793E-1,2.538645538E0
2.891901375E0,9.261837566E-1,-1.725216300E0,7.871615267E-1,2.110405388E0
2.901915375E0,5.398933017E-1,-1.393950338E0,9.333173597E-1,1.762289311E0
2.911929375E0,6.162269479E-1,-8.156783974E-1,9.426939547E-1,1.390589368E0
2.921942375E0,4.981769264E-2,-1.079248952E0,6.116012156E-1,1.241497543E0
2.931956375E0,-8.797714823E-1,-9.764287345E-1,3.207256258E-1,1.352876883E0
2.941970375E0,-4.729789352E-1,8.709749311E-2,-6.799317777E-2,4.857140298E-1
2.951984375E0,-5.148906076E-1,-3.625063205E-1,-6.190271795E-2,6.327362141E-1
2.961998375E0,-2.148827779E0,-1.675920618E0,1.849637850E-1,2.731370049E0
2.972011375E0,-2.922278754E0,-1.221526473E0,-1.958267788E-1,3.173355979E0
2.982025375E0,-2.189458326E0,-2.746450348E-1,-8.856993896E-1,2.377734440E0
2.992039375E0,-3.155370405E0,-1.761001260E0,-1.446550282E0,3.892299519E0
3.002053375E0,-3.892930586E0,-2.023175938E0,-6.403678355E-1,4.433759171E0
3.012067375E0,-4.345384625E0,-1.593083552E0,-6.000723336E-1,4.666944348E0
3.022080375E0,-5.152391016E0,-7.520644187E-1,-9.415238538E-1,5.291427146E0
3.032094375E0,-5.933869050E0,2.393336264E-1,-1.097754805E-1,5.939708169E0
3.042108375E0,-6.355367929E0,4.029614514E-1,1.318050116E-1,6.369493858E0
3.052122375E0,-6.000600398E0,5.011958438E-1,-1.742330516E0,6.268502057E0
3.062136375E0,-5.194628963E0,5.405905091E-1,-3.357817383E0,6.208973002E0
3.072149375E0,-3.707904217E0,9.442799389E-1,-3.337138120E0,5.077076828E0
3.082163375E0,-2.281002334E0,1.514116613E0,-2.210583147E0,3.518834838E0
3.092177375E0,-1.399735134E0,1.801167246E0,-6.041343212E-1,2.359754261E0
3.102191375E0,-1.074817640E-1,1.526779635E0,1.779208320E0,2.346953479E0
3.112205375E0,1.559645373E0,1.977661943E0,3.781421844E0,4.543433901E0
3.122218375E0,1.842096879E0,2.575290067E0,4.746174420E0,5.705401955E0
3.132232375E0,8.516077834E-1,2.629007560E0,3.450388162E0,4.420644188E0
3.142246375E0,3.934141177E-1,2.582000916E0,1.701085426E0,3.116920760E0
3.152260375E0,5.198934853E-1,2.809322827E0,6.534097577E-1,2.930789705E0
3.162274375E0,-2.621949971E-1,2.747251124E0,1.817278518E0,3.304335965E0
3.172287375E0,-5.705315423E-1,2.850888344E0,2.925605235E0,4.124589262E0
3.182301375E0,-4.905574197E-1,3.855861577E0,2.559008787E0,4.653691122E0
3.192315375E0,-1.062467151E0,4.136020390E0,1.523583986E0,4.533961764E0
3.202329375E0,-1.231590262E0,3.923032929E0,7.503152242E-1,4.179709903E0
3.212343375E0,-6.788564748E-1,3.738203319E0,7.979804836E-2,3.800181298E0
3.222356375E0,5.848373401E-1,3.198646525E0,-4.626983607E-1,3.284427511E0
3.232370375E0,1.381938549E0,2.231193120E0,-4.672369695E-1,2.665762044E0
3.242384375E0,2.067830393E0,1.490719272E0,-2.811821488E-1,2.564611059E0
3.252398375E0,3.020435379E0,9.642950311E-1,1.771355510E-1,3.175574245E0
3.262412375E0,4.947146730E0,4.571905759E-1,1.155261294E0,5.100775691E0
3.272425375E0,4.261634370E0,2.655200528E-1,6.741911276E-1,4.322795632E0
3.282439375E0,3.419761031E0,-4.456268299E-1,3.065144797E-1,3.462268030E0
3.292453375E0,3.493666329E0,-8.581870705E-1,1.102602439E0,3.762701370E0
3.302467375E0,3.487740760E0,-7.270881101E-1,8.100239937E-1,3.653646343E0
3.312481375E0,3.837438755E0,-5.028865662E-1,-2.935256942E-1,3.881364249E0
3.322494375E0,3.728582895E0,-7.807757825E-1,-1.397421537E0,4.057675219E0
3.332508375E0,3.567565194E0,-9.448147398E-1,-1.909757935E0,4.155402710E0
3.342522375E0,3.422754221E0,-1.031393293E0,-2.338770340E0,4.271869062E0
3.352536375E0,3.132575619E0,-1.427005671E0,-2.716937989E0,4.385330915E0
3.362550375E0,2.772146230E0,-1.510856205E0,-2.845030019E0,4.249903175E0
3.372563375E0,2.710853961E0,-1.165342771E0,-3.170527557E0,4.331165889E0
3.382577375E0,2.685108086E0,-8.786549565E-1,-3.585580466E0,4.564890715E0
3.392591375E0,2.567479649E0,-5.602269942E-1,-3.665480914E0,4.510161456E0
3.402605375E0,2.501648771E0,-2.938456648E-1,-3.513166208E0,4.322838033E0
3.412619375E0,2.370723181E0,-1.250339359E-1,-3.230042857E0,4.008633027E0
3.422632375E0,1.753220955E0,-2.735994065E-1,-2.412288113E0,2.994624233E0
3.432646375E0,9.980799508E-1,-5.312371568E-1,-1.544598002E0,1.914199439E0
3.442660375E0,3.018683553E-1,-4.798133802E-1,-9.959066869E-1,1.145938704E0
3.452674375E0,-4.142395610E-1,-4.054891296E-1,-8.671667857E-1,1.043069548E0
3.462688375E0,-1.067961195E0,-2.454172888E-1,-9.143583477E-1,1.427172711E0
3.472701375E0,-1.573405041E0,-6.028588973E-2,-1.115934968E0,1.929908978E0
3.482715375E0,-1.780823906E0,-1.086055257E-1,-1.143510291E0,2.119137732E0
3.492729375E0,-1.918620560E0,-1.025164546E-1,-1.067441085E0,2.197963818E0
3.502743375E0,-2.053144526E0,1.265776008E-3,-9.070373413E-1,2.244575859E0
3.512757375E0,-2.477663493E0,1.595468339E-1,-6.151820505E-1,2.557874221E0
3.522770375E0,-2.815786924E0,-8.867521808E-3,-5.287217577E-1,2.865009831E0
3.532784375E0,-3.096094256E0,-6.413806464E-1,-4.849261124E-1,3.198800105E0
3.542798375E0,-3.307992674E0,-5.319188690E-1,-4.180338192E-1,3.376463458E0
3.552812375E0,-3.733182900E0,-6.442278019E-1,-3.906115472E-1,3.808446062E0
3.562826375E0,-4.100033702E0,-9.271504475E-1,-4.942356107E-1,4.232511447E0
3.572839375E0,-4.017098549E0,-7.740140623E-1,-1.112406465E0,4.239531420E0
3.582853458E0,-3.651607225E0,-8.602226324E-1,-1.522482663E0,4.048724708E0
3.592867458E0,-3.804825325E0,-1.081145058E0,-1.521226681E0,4.237888744E0
3.602881458E0,-4.318225477E0,-1.298093569E0,-1.372435069E0,4.713352969E0
3.612895458E0,-4.571385357E0,-1.764704010E0,-8.180076358E-1,4.967985589E0
3.622909458E0,-4.848998877E0,-1.604892882E0,1.315787244E-1,5.109381981E0
3.632922458E0,-4.795068253E0,-1.043760885E0,1.615163370E0,5.166320648E0
3.642936458E0,-3.741768951E0,-9.025750387E-1,2.447833191E0,4.561508952E0
3.652950458E0,-2.006515321E0,-5.440106186E-1,2.692160997E0,3.401438243E0
3.662964458E0,-3.035418284E-1,-2.451983106E-1,3.204899830E0,3.228566674E0
3.672977458E0,3.065882277E-1,5.120552927E-2,3.378831106E0,3.393098583E0
3.682991458E0,9.644917899E-1,6.868208210E-1,4.004002540E0,4.175404602E0
3.693005458E0,2.473097402E-1,8.785089223E-1,4.192087587E0,4.290284183E0
3.703019458E0,5.609298295E-1,1.250796904E0,3.217321655E0,3.497183695E0
3.713033458E0,9.639585239E-1,1.880706336E0,2.700977429E0,3.429511836E0
3.723047458E0,3.122062325E-1,2.094760330E0,9.487849993E-1,2.320708199E0
3.733060458E0,-4.812685329E-1,2.103929641E0,-3.603229702E-2,2.158573061E0
3.743074458E0,-3.267488426E-1,1.952594052E0,3.007527065E-1,2.002458621E0
3.753088458E0,-3.003252751E-1,1.707553031E0,1.125138777E-1,1.737409566E0
3.763102458E0,-3.152467847E-1,1.037340203E0,2.257520793E-1,1.107438140E0
3.773115458E0,-4.921086860E-1,4.261763594E-1,5.378882915E-1,8.444649562E-1
3.783129458E0,3.166495317E-1,5.941098547E-1,7.837027524E-1,1.033161870E0
3.793143458E0,1.144266189E0,7.692611530E-1,7.436868936E-1,1.566581638E0
3.803157458E0,1.575174408E0,8.762426877E-1,6.036758995E-1,1.900894593E0
3.813171458E0,1.785763634E0,9.648163104E-1,4.074478738E-1,2.070226084E0
3.823185458E0,2.147800423E0,1.011868855E0,5.452747867E-2,2.374847044E0
3.833198458E0,2.817172129E0,1.061517271E0,-6.864923537E-1,3.087806580E0
3.843212458E0,2.083790953E0,1.087724491E0,-8.997613585E-1,2.516922686E0
3.853226458E0,2.536588808E0,3.844415653E-1,-1.602393197E0,3.024854055E0
3.863240458E0,2.613616519E0,3.708953208E-1,-1.018263370E0,2.829384198E0
3.873254458E0,2.708161318E0,7.538785905E-1,-7.042462546E-1,2.898005080E0
3.883267458E0,3.260096376E0,7.450919795E-1,-4.690143768E-1,3.376886869E0
3.893281458E0,2.594368070E0,6.250752470E-1,-1.005295707E-1,2.670500129E0
3.903295458E0,2.353831744E0,6.084273469E-1,-1.178939009E-1,2.434051497E0
3.913309458E0,2.398548911E0,1.118095514E0,-1.673999369E-1,2.651640472E0
3.923323458E0,2.772954315E0,2.178279619E0,-9.582514952E-1,3.654096832E0
3.933336458E0,2.830119034E0,2.751547658E0,-1.618734995E0,4.266250256E0
3.943350458E0,3.384861340E0,2.763083338E0,-2.101032053E0,4.848324609E0
3.953364458E0,3.696905605E0,2.733493795E0,-2.360091919E0,5.168087968E0
3.963378458E0,3.707867380E0,2.689911574E0,-2.554124608E0,5.244755218E0
3.973392458E0,3.179362700E0,2.398410039E0,-2.498150382E0,4.701220397E0
3.983405458E0,1.875186857E0,1.701045373E0,-2.193240305E0,3.349654332E0
3.993419458E0,8.846416283E-1,9.411920974E-1,-2.022741783E0,2.399982853E0
4.003433458E0,-2.358538753E-1,1.767297542E-1,-1.521132248E0,1.549420464E0
4.013447458E0,-1.404029914E0,-1.028030266E0,-3.401781428E-1,1.773095428E0
4.023461458E0,-2.335939849E0,-1.563226792E0,-4.779177859E-2,2.811152261E0
4.033474458E0,-2.528809673E0,-2.342194908E0,2.673079486E-1,3.457196680E0
4.043488458E0,-2.284070953E0,-4.444826467E0,-1.284048557E-2,4.997362036E0
4.053502458E0,-2.370698622E0,-6.093481665E0,3.713788855E-1,6.548942894E0
4.063516458E0,-1.053042608E0,-5.709524249E0,1.168748774E-1,5.806997987E0
4.073530458E0,1.002941326E0,-4.297304140E0,-3.007573843E-1,4.423027151E0
4.083543458E0,1.592835338E0,-3.677233232E0,-2.968970525E-1,4.018372372E0
4.093557458E0,1.296302567E0,-3.337948836E0,-2.826792553E-2,3.580935891E0
4.103571458E0,5.516964912E-1,-2.687991640E0,1.354868571E-1,2.747366878E0
4.113585458E0,-7.177878213E-1,-2.087720282E0,-3.000580573E-1,2.227965478E0
4.123599458E0,-1.596175852E0,-1.346078160E0,-9.823410004E-1,2.307530629E0
4.133612458E0,-1.949303239E0,-6.732402241E-1,-1.389833752E0,2.486900355E0
4.143626458E0,-1.800948853E0,2.235033864E-1,-2.109948180E0,2.783029259E0
4.153640458E0,-1.837589845E0,-7.986208999E-1,-2.035863812E0,2.856444160E0
4.163654458E0,-1.278492533E0,-1.404123470E0,-1.142515533E0,2.216178607E0
4.173668458E0,-1.561681373E0,-1.378307428E0,-7.305617948E-1,2.207328841E0
4.183681458E0,-2.069172329E0,-1.415278203E0,-2.089579258E-1,2.515581431E0
4.193695458E0,-2.521536906E0,-1.494309754E0,6.305660748E-1,2.998120008E0
4.203709458E0,-2.544826366E0,-1.677887183E0,1.516840246E0,3.404739485E0
4.213723458E0,-1.839276182E0,-1.451987023E0,2.212772344E0,3.222974501E0
4.223737458E0,-1.054899099E0,-9.357585722E-1,3.340548216E0,3.625978296E0
4.233750458E0,2.427588522E-1,-3.536735165E-1,4.260957847E0,4.282496771E0
4.243764458E0,8.378469461E-1,4.331798619E-1,4.583116041E0,4.679164983E0
4.253778458E0,2.700255883E-1,1.095055438E0,4.507182344E0,4.646154637E0
4.263792458E0,-9.243377906E-1,1.698417342E0,5.089142269E0,5.444115250E0
4.273806458E0,-1.324241733E0,1.621275026E0,3.311442531E0,3.917626898E0
4.283819458E0,-2.141100683E0,1.295392156E0,2.663495607E0,3.654663025E0
4.293833458E0,-2.746317909E0,1.227086737E0,1.596746979E0,3.405525632E0
4.303847458E0,-3.024783368E0,1.350427319E0,-4.701798731E-1,3.345749166E0
4.313861458E0,-4.038989355E0,1.890377923E0,-1.289765965E0,4.642247295E0
4.323875458E0,-4.340330291E0,2.355226305E0,-2.470947965E0,5.521878470E0
4.333888458E0,-4.811141079E0,2.566998423E0,-3.607167217E0,6.538211890E0
4.343902458E0,-5.059684582E0,2.599865622E0,-3.366527980E0,6.610084716E0
4.353916458E0,-4.419945980E0,2.642706417E0,-2.277786366E0,5.630997283E0
4.363930458E0,-3.446786570E0,2.593955256E0,-7.921680589E-1,4.385940237E0
4.373944458E0,-2.158494103E0,2.750182918E0,5.786799297E-2,3.496562824E0
4.383957458E0,-9.598505625E-1,2.848904384E0,1.181714974E-1,3.008576706E0
4.393971458E0,-5.509518483E-1,2.706952699E0,5.773603593E-1,2.822142065E0
4.403985458E0,8.946620017E-2,2.714534199E0,8.328129320E-1,2.840823384E0
4.413999458E0,1.045009119E0,3.080645328E0,5.417445302E-1,3.297863980E0
4.424013458E0,1.381955506E0,3.759584248E0,3.212816960E-1,4.018394787E0
4.434026458E0,1.726485146E0,3.896517853E0,-2.895652288E-1,4.271703449E0
4.444040458E0,2.021120496E0,3.865940423E0,-4.072818129E-1,4.381358452E0
4.454054458E0,2.041716290E0,3.891262960E0,-7.187257147E-1,4.452763129E0
4.464068458E0,2.103154300E0,4.036419504E0,-1.148751296E0,4.694205999E0
4.474082458E0,2.070484006E0,4.052880585E0,-1.472075863E0,4.783278416E0
4.484095458E0,2.471516315E0,3.575558923E0,-1.627230122E0,4.641216691E0
4.494109458E0,2.936521402E0,3.254549122E0,-1.233235084E0,4.553692645E0
4.504123458E0,2.587406960E0,2.673711863E0,-9.982293472E-1,3.852255408E0
4.514137458E0,2.188511370E0,2.071531681E0,-1.416109823E0,3.329593451E0
4.524151458E0,1.768049202E0,1.850260177E0,-2.817991616E0,3.806643857E0
4.534164458E0,9.178235538E-1,1.023490781E0,-6.233142995E0,6.382946424E0
4.544178458E0,7.812939920E-2,-8.253520310E-2,-5.018172274E0,5.019459058E0
4.554192458E0,1.374139532E-1,-6.984206736E-1,-4.956622143E0,5.007472127E0
4.564206458E0,3.967022994E-1,-5.447792351E-1,-3.580952979E0,3.643814124E0
4.574220458E0,4.492037909E-1,1.724425757E-1,-2.200621684E0,2.252610993E0
4.584233208E0,5.306567110E-1,7.294015610E-1,-1.091550617E0,1.416017631E0
4.594247208E0,5.957066562E-1,7.821761906E-1,-6.584929615E-1,1.183333847E0
4.604261208E0,6.693645434E-1,5.910049832E-1,-1.027177962E0,1.361040171E0
4.614275208E0,-3.263236038E-2,-5.685364723E-2,-7.016605427E-1,7.047160601E-1
4.624289208E0,7.308803950E-2,-7.047496998E-1,-7.869843560E-1,1.058942103E0
4.634302208E0,2.780798720E-2,-1.740505600E0,-9.669218197E-1,1.991248561E0
4.644316208E0,1.031272968E-1,-2.745425624E0,-1.447621492E0,3.105415444E0
4.654330208E0,2.745741739E-1,-3.082819907E0,-1.861990276E0,3.611949244E0
4.664344208E0,-1.021914444E0,-3.232076519E0,-2.654914818E0,4.305717181E0
4.674358208E0,-1.274659245E0,-3.352910399E0,-2.905185589E0,4.615936269E0
4.684371208E0,-9.697728489E-1,-3.615698889E0,-3.499418235E0,5.124418583E0
4.694385208E0,-1.106392531E0,-3.887209670E0,-3.324105846E0,5.232989884E0
4.704399208E0,-1.332575623E0,-3.222597597E0,-1.935055913E0,3.988149252E0
4.714413208E0,-1.670173097E0,-3.070614429E0,-3.986315882E-1,3.518104360E0
4.724427208E0,-1.743549222E0,-3.304715894E0,6.835909653E-1,3.798474383E0
4.734440208E0,-9.005383073E-1,-3.658187097E0,7.294688040E-1,3.837372384E0
4.744454208E0,8.551898608E-1,-4.833500247E0,-4.613242650E-1,4.930202269E0
4.754468208E0,2.071718646E0,-6.296129202E0,4.185331714E-1,6.641417853E0
4.764482208E0,2.097939022E0,-7.285590942E0,1.694479827E0,7.768683633E0
4.774496208E0,1.699294570E0,-7.960591763E0,2.750694550E0,8.592144305E0
4.784509208E0,9.748154146E-1,-7.399115219E0,3.611796457E0,8.291094304E0
4.794523208E0,2.553656319E-1,-5.386402434E0,4.312463631E0,6.904772651E0
4.804537208E0,3.621214275E-1,-2.440114428E0,4.049304428E0,4.741535268E0
4.814551208E0,1.149499447E0,-5.611046612E-2,3.497543033E0,3.682024529E0
4.824565208E0,1.370107293E0,1.369462929E0,3.029288648E0,3.595721405E0
4.834578208E0,1.305484596E0,1.555366965E0,2.433992978E0,3.169823062E0
4.844592208E0,1.594732467E0,1.072736031E0,1.534962521E0,2.459683755E0
4.854606208E0,1.660319516E0,4.819397932E-1,9.825409752E-1,1.988545606E0
4.864620208E0,1.706668348E0,-1.908566272E-1,7.287881881E-1,1.865549604E0
4.874634208E0,1.133828836E0,1.419498723E0,-1.823148392E0,2.573793798E0
4.884647208E0,1.606620880E0,2.011981298E0,-1.133640629E0,2.813261536E0
4.894661208E0,1.466876957E0,-2.720148110E-1,2.207194101E0,2.664099447E0
4.904675208E0,4.234577695E-1,-1.588856308E0,3.256400936E0,3.648003276E0
4.914689208E0,7.299678639E-1,-1.814259455E0,3.187148852E0,3.739292481E0
4.924702208E0,9.045788795E-2,-1.218439874E0,2.534537605E0,2.813655847E0
4.934716208E0,-3.195439035E-1,-5.545756602E-1,1.201122175E0,1.361013207E0
4.944730208E0,-4.828379256E-1,2.774240702E-1,2.440861702E-2,5.573978451E-1
4.954744208E0,-5.010492249E-1,1.393038903E0,-5.139655781E-1,1.567089125E0
4.964758208E0,-4.389061864E-1,2.493396011E0,-8.942217795E-1,2.685013017E0
4.974772208E0,2.169499733E-1,3.099023711E0,-1.136007582E0,3.307798132E0
4.984785208E0,1.276273368E0,3.217281309E0,-5.131083763E-1,3.499007422E0
4.994799208E0,1.756388392E0,3.419843477E0,4.432236242E-1,3.869971159E0
5.004813208E0,1.940376441E0,3.614557512E0,8.153989005E-1,4.182697946E0
5.014827208E0,1.931827081E0,3.842141086E0,8.516843820E-1,4.383990224E0
5.024841208E0,1.767633611E0,3.903633329E0,5.844350517E-1,4.324863707E0
5.034854208E0,6.124512546E-1,4.298402832E0,4.617884974E-1,4.366304165E0
5.044868208E0,-1.367898507E0,5.314274105E0,1.195638839E-1,5.488802339E0
5.054882208E0,-1.956373985E0,5.611335465E0,9.749062657E-2,5.943398799E0
5.064896208E0,-2.139651889E0,5.169188898E0,-8.494998622E-1,5.658645958E0
5.074910208E0,-1.252553992E0,4.805742930E0,-1.297143981E0,5.132897731E0
5.084923208E0,-4.664242065E-1,4.610411428E0,-1.214623396E0,4.790485891E0
5.094937208E0,-4.294698036E-1,3.524813862E0,-6.107334888E-1,3.603019909E0
5.104951208E0,-2.325446436E-1,2.505414963E0,-2.614792979E-1,2.529733695E0
5.114965208E0,-1.425732440E-1,1.743264901E0,-5.899828899E-1,1.845908843E0
5.124979208E0,-7.131512716E-2,7.403200668E-1,-1.189990246E0,1.403294850E0
5.134992208E0,1.772788078E-1,-1.499413204E-1,-1.220504526E0,1.242393445E0
5.145006208E0,5.379148963E-1,-7.423110437E-1,-6.135389829E-1,1.103090298E0
5.155020208E0,7.481739007E-1,-1.166496134E0,-3.610702078E-1,1.432078598E0
5.165034208E0,7.225094479E-1,-1.444881486E0,-5.707326865E-1,1.713312059E0
5.175048208E0,9.770505859E-1,-1.805536578E0,-9.693759692E-1,2.270303934E0
5.185061208E0,1.301605846E0,-2.260297344E0,-1.931696688E0,3.245700842E0
5.195075208E0,1.669712483E0,-2.783272896E0,-3.215159354E0,4.568566237E0
5.205089208E0,1.874275276E0,-3.371276504E0,-4.058077590E0,5.598786190E0
5.215103208E0,1.948580815E0,-3.813521889E0,-4.038725646E0,5.886528793E0
5.225116208E0,2.028027812E0,-4.251371922E0,-3.277067335E0,5.738138229E0
5.235130208E0,2.177094242E0,-4.434211432E0,-2.609726951E0,5.586827823E0
5.245144208E0,2.357795279E0,-4.407863878E0,-2.114252608E0,5.427570970E0
5.255158208E0,2.592098181E0,-4.017409621E0,-1.907216589E0,5.147429276E0
5.265172208E0,2.818837416E0,-3.408402230E0,-2.132863126E0,4.910412941E0
5.275186208E0,2.499268370E0,-2.964247144E0,-2.134688627E0,4.426059088E0
5.285199208E0,1.283753858E0,-3.054800634E0,-1.395986484E0,3.595637516E0
5.295213208E0,6.150320694E-2,-3.365305327E0,-2.296108031E-1,3.373689925E0
5.305227208E0,-6.160952394E-1,-3.512369233E0,9.052285782E-1,3.679096322E0
5.315241208E0,-1.458565725E0,-3.590351794E0,1.612438713E0,4.197379966E0
5.325255208E0,-2.274408137E0,-3.537593536E0,2.237554014E0,4.763837567E0
5.335268208E0,-2.314136167E0,-3.286348620E0,3.802259567E0,5.532855616E0
5.345282208E0,-1.460052964E0,-2.640654044E0,6.217730319E0,6.911221221E0
5.355296208E0,-3.585138416E-1,-1.702371229E0,8.469993589E0,8.646813943E0
5.365310208E0,5.771811421E-1,-6.119350916E-1,8.209688412E0,8.252671473E0
5.375324208E0,2.637959647E-1,-2.012769502E-1,6.016954476E0,6.026096737E0
5.385337208E0,-9.420332193E-1,-5.830919462E-1,3.165813532E0,3.354071872E0
5.395351208E0,-2.413303628E0,-1.210931464E0,1.119507836E0,2.922958640E0
5.405365208E0,-3.362524391E0,-1.374324304E0,-1.941123569E-1,3.637721427E0
5.415379208E0,-3.828835162E0,-1.061067327E0,-7.475559231E-1,4.042855727E0
5.425393208E0,-4.015476531E0,-4.064966780E-1,-6.788278234E-1,4.092688424E0
5.435406208E0,-4.129387017E0,2.299756694E-1,-3.977452234E-1,4.154867892E0
5.445420208E0,-3.959054701E0,8.792844093E-1,-2.133743278E-1,4.061130853E0
5.455434208E0,-3.329340858E0,1.377867132E0,-1.811362159E-1,3.607747041E0
5.465448208E0,-2.409822342E0,1.862594878E0,-1.740821350E-1,3.050706146E0
5.475462208E0,-1.599430705E0,2.326087875E0,-8.183872662E-2,2.824103568E0
5.485475208E0,-9.182854839E-1,2.740076591E0,1.250649992E-1,2.892561012E0
5.495489208E0,-4.093469033E-1,3.023406934E0,4.802236354E-1,3.088554535E0
5.505503208E0,1.021394554E-1,3.244603593E0,7.033639097E-1,3.321536653E0
5.515517208E0,6.968299386E-1,3.408568291E0,4.721940927E-1,3.510965255E0
5.525531208E0,1.046200781E0,3.512154055E0,2.766633475E-1,3.675092487E0
5.535544208E0,1.395096830E0,3.597583045E0,3.948063397E-1,3.878758948E0
5.545558208E0,1.591768514E0,3.564705906E0,6.233621590E-1,3.953408097E0
5.555572208E0,1.696972495E0,3.445228579E0,5.805055766E-1,3.884108950E0
5.565586208E0,1.521783774E0,3.282059103E0,3.500260965E-1,3.634591597E0
5.575600208E0,1.293821301E0,3.184056845E0,4.253381610E-2,3.437150080E0
5.585613083E0,1.299608583E0,3.161640959E0,-2.740262532E-1,3.429292406E0
5.595627083E0,1.611320141E0,3.179762650E0,-5.536037799E-1,3.607453430E0
5.605641083E0,1.759442100E0,3.140366449E0,-1.073798908E0,3.756405467E0
5.615655083E0,1.615671054E0,3.003390745E0,-1.825967335E0,3.868450029E0
5.625669083E0,1.291187715E0,2.794513584E0,-2.708147285E0,4.100065073E0
5.635682083E0,9.155318838E-1,2.573298213E0,-3.502927734E0,4.441910066E0
5.645696083E0,7.784982920E-1,2.413193262E0,-3.390626110E0,4.233899707E0
5.655710083E0,8.322499913E-1,2.348006163E0,-2.315266872E0,3.400916594E0
5.665724083E0,7.222194260E-1,2.162920738E0,-1.260408264E0,2.605466563E0
5.675738083E0,6.537426835E-1,1.803497069E0,-7.465371919E-1,2.058470052E0
5.685751083E0,8.838487458E-1,1.195098959E0,-8.389759704E-1,1.706848208E0
5.695765083E0,1.016596036E0,6.640688664E-1,-1.153186555E0,1.674602697E0
5.705779083E0,1.013823579E0,2.819813901E-1,-1.543218205E0,1.867852827E0
5.715793083E0,9.677317321E-1,-1.499085760E-1,-1.675897375E0,1.941033049E0
5.725807083E0,7.233353671E-1,-7.457614857E-1,-9.851447403E-1,1.431741739E0
5.735820083E0,5.627684864E-1,-1.511352049E0,-5.817334919E-1,1.714440795E0
5.745834083E0,2.712818626E-1,-2.486678730E0,-8.563059481E-1,2.643941155E0
5.755848083E0,-2.569784036E-1,-3.635247885E0,-1.351030605E0,3.886688665E0
5.765862083E0,-8.636609414E-1,-4.685979089E0,-2.061730578E0,5.191824652E0
5.775876083E0,-1.206445188E0,-5.439848324E0,-2.899051859E0,6.281079642E0
5.785889083E0,-1.460529220E0,-5.829326096E0,-4.075142105E0,7.260920845E0
5.795903083E0,-1.508349942E0,-5.721274229E0,-5.612589108E0,8.155320646E0
5.805917083E0,-9.934416470E-1,-4.543951390E0,-7.455375373E0,8.787322829E0
5.815931083E0,-9.539809813E-1,-2.825704971E0,-6.752595016E0,7.381885108E0
5.825945083E0,-1.247433878E0,-1.986769858E0,-4.279419261E0,4.880243330E0
5.835959083E0,-7.803096132E-1,-2.407936615E0,-3.139415692E0,4.032737621E0
5.845972083E0,-6.511010577E-1,-3.546411722E0,4.720128290E-1,3.636449477E0
5.855986083E0,-1.518723195E0,-4.649317632E0,7.182609780E0,8.689796191E0
5.866000083E0,-3.497311775E0,-5.414615834E0,7.872443233E0,1.017470475E1
5.876014083E0,-3.902976395E0,-3.915484466E0,3.502636542E0,6.544670052E0
5.886028083E0,-1.567186234E0,-1.477467434E0,1.270707404E0,2.500735895E0
5.896041083E0,3.288231423E-1,9.298259872E-1,1.904080435E0,2.144346830E0
5.906055083E0,4.205650789E-1,2.117110142E0,2.137331714E0,3.037633486E0
5.916069083E0,4.127029127E-1,1.960564392E0,3.112180531E0,3.701324639E0
5.926083083E0,1.976361814E-1,6.966150534E-1,3.580797443E0,3.653278380E0
5.936097083E0,-3.866126364E-1,-8.894679201E-1,3.086248130E0,3.235050236E0
5.946110083E0,-5.510816565E-1,-1.356644078E0,1.851590857E0,2.360627639E0
5.956124083E0,-2.800547326E-1,-8.132126266E-1,6.786361809E-1,1.095578612E0
5.966138083E0,1.987760961E-3,-3.674331844E-1,5.494606622E-1,6.609978180E-1
5.976152083E0,3.386587438E-1,-1.084752059E-1,8.854963450E-1,9.542328815E-1
5.986166083E0,4.828525436E-1,-1.294263643E-1,9.689350891E-1,1.090290314E0
5.996179083E0,4.692001721E-1,-3.652445716E-1,8.064142151E-1,1.001926287E0
6.006193083E0,2.296382850E-1,-6.047482789E-1,4.952275908E-1,8.146806671E-1
6.016207083E0,-2.050966439E-1,-6.318688345E-1,-2.231165931E-2,6.646959211E-1
6.026221083E0,-5.188251990E-1,-2.008916187E-1,-3.607520096E-1,6.630829828E-1
6.036235083E0,-4.943361828E-1,7.626622778E-1,-2.061142056E-1,9.319361981E-1
6.046248083E0,-6.288417310E-2,1.875754622E0,1.468855655E-1,1.882547526E0
6.056262083E0,4.678804556E-1,2.747631193E0,6.384646399E-1,2.859375175E0
6.066276083E0,8.382919192E-1,3.285437039E0,1.044450710E0,3.547915890E0
6.076290083E0,1.089868373E0,3.600592023E0,1.205290217E0,3.950291190E0
6.086304083E0,1.284071361E0,3.809151095E0,1.225140345E0,4.202313671E0
6.096317083E0,1.521486736E0,3.889871907E0,1.224078344E0,4.352515725E0
6.106331083E0,1.678248833E0,3.828583147E0,1.237847514E0,4.359682847E0
6.116345083E0,1.512178261E0,3.583538033E0,1.218798308E0,4.076014873E0
6.126359083E0,1.153297799E0,3.327531145E0,1.117967752E0,3.694916944E0
6.136373083E0,8.875085181E-1,3.124667845E0,1.001139360E0,3.399044061E0
6.146386083E0,6.904436097E-1,2.920399459E0,8.175448287E-1,3.110277307E0
6.156400083E0,5.634198663E-1,2.737207362E0,5.519512837E-1,2.848577945E0
6.166414083E0,6.145496741E-1,2.639133183E0,2.111651766E-1,2.717956216E0
6.176428083E0,8.471846572E-1,2.568214059E0,-2.167630816E-1,2.713011524E0
6.186442083E0,1.113754249E0,2.600884792E0,-7.168614762E-1,2.918722426E0
6.196455083E0,1.478991804E0,2.521179056E0,-1.112031513E0,3.127359057E0
6.206469083E0,1.787229238E0,2.190448844E0,-1.149185890E0,3.051701608E0
6.216483083E0,1.787699355E0,1.604632680E0,-1.072226081E0,2.630662234E0
6.226497083E0,1.711311329E0,9.429518169E-1,-1.036677348E0,2.211887095E0
6.236511083E0,1.643104728E0,2.295347893E-1,-1.184278832E0,2.038380661E0
6.246524083E0,1.371605057E0,-5.168564415E-1,-1.246379625E0,1.924033051E0
6.256538083E0,1.034472436E0,-1.241421770E0,-1.167145175E0,1.993361255E0
6.266552083E0,8.494378817E-1,-2.057070347E0,-1.494524932E0,2.680799862E0
6.276566083E0,5.116693765E-1,-2.787089959E0,-1.904104847E0,3.413984660E0
6.286580083E0,2.930829138E-1,-3.387453995E0,-2.085797718E0,3.988896374E0
6.296593083E0,2.773158967E-1,-3.762851087E0,-2.259482242E0,4.397864529E0
6.306607083E0,3.538126802E-1,-3.874354566E0,-2.476470076E0,4.611801248E0
6.316621083E0,4.162083185E-1,-3.693968548E0,-2.805637912E0,4.657277863E0
6.326635083E0,6.496741909E-1,-3.450013356E0,-2.936925445E0,4.577138820E0
6.336649083E0,9.033775690E-1,-3.048786188E0,-2.688574023E0,4.164086758E0
6.346663083E0,1.126375464E0,-2.583092884E0,-2.346334444E0,3.666930031E0
6.356676083E0,1.126800556E0,-2.500977511E0,-2.204001521E0,3.518833714E0
6.366690083E0,8.293459716E-1,-3.138108839E0,-1.839749076E0,3.730980902E0
6.376704083E0,3.568614185E-1,-4.123659377E0,-1.257485534E0,4.325874084E0
6.386718083E0,3.753123075E-2,-4.687958956E0,-6.190960304E-1,4.728810386E0
6.396732083E0,3.873297974E-1,-5.512891157E0,3.977977753E-1,5.540779399E0
6.406745083E0,9.555239153E-1,-5.822708802E0,9.521233939E-1,5.976914146E0
6.416759083E0,1.024876863E0,-4.361890730E0,1.783171709E0,4.822464584E0
6.426773083E0,1.226352619E0,-2.440628983E0,3.169649305E0,4.184171040E0
6.436787083E0,1.307927709E0,-1.321403494E0,4.327862273E0,4.710326310E0
6.446801083E0,1.102495435E0,-8.526906878E-1,4.945907121E0,5.138538201E0
6.456814083E0,5.927967162E-1,-8.738453293E-1,5.402934852E0,5.505153823E0
6.466828083E0,-5.220851679E-1,-1.057832063E0,5.528883877E0,5.653329861E0
6.476842083E0,-2.077868455E0,-1.226532421E0,5.469007219E0,5.977621522E0
6.486856083E0,-2.672570778E0,-1.459892458E0,4.969100686E0,5.828025582E0
6.496870083E0,-3.072610961E0,-1.635037032E0,3.989379823E0,5.294283293E0
6.506883083E0,-3.334604521E0,-1.637768267E0,3.068347464E0,4.818363661E0
6.516897083E0,-3.484749033E0,-1.490052397E0,2.235272284E0,4.400019790E0
6.526911083E0,-3.571764080E0,-1.255806506E0,1.518788538E0,4.079370937E0
6.536925083E0,-3.806052656E0,-8.514955169E-1,6.025123036E-1,3.946403744E0
6.546939083E0,-3.834286813E0,-3.593172491E-1,-9.029374199E-1,3.955522751E0
6.556952083E0,-4.004732857E0,2.056910133E-1,-1.885085024E0,4.430997585E0
6.566966083E0,-4.079983307E0,8.908180422E-1,-2.894790409E0,5.081302203E0
6.576980083E0,-3.606742709E0,1.726827793E0,-3.381658820E0,5.236997572E0
6.586994500E0,-2.638090917E0,2.687489657E0,-3.636321434E0,5.234974490E0
6.597008500E0,-1.511429232E0,3.516863987E0,-3.278665963E0,5.040079477E0
6.607022500E0,-6.447531742E-1,4.126878269E0,-2.718986853E0,4.983946269E0
6.617035500E0,6.701786220E-2,4.606265168E0,-1.694328969E0,4.908454017E0
6.627049500E0,8.478997716E-1,4.904630456E0,-7.541424461E-1,5.034189583E0
6.637063500E0,1.209334882E0,5.146026322E0,9.779131964E-2,5.287120285E0
6.647077500E0,1.585495328E0,5.372481383E0,1.054250936E0,5.699894445E0
6.657091500E0,2.036806821E0,5.580858607E0,1.636743250E0,6.162263650E0
6.667104500E0,2.259429032E0,5.638427369E0,1.830971674E0,6.344236756E0
6.677118500E0,2.222187531E0,5.607846431E0,1.803942335E0,6.296051697E0
6.687132500E0,2.161016884E0,5.201317009E0,1.209079067E0,5.760691346E0
6.697146500E0,1.953520543E0,4.717119021E0,6.178672381E-1,5.142879961E0
6.707160500E0,1.850289997E0,4.279155552E0,2.734625816E-1,4.670067140E0
6.717173500E0,1.837825195E0,3.788137956E0,-1.812037513E-2,4.210453535E0
6.727187500E0,1.735363559E0,3.267321196E0,-3.834839375E-1,3.719399737E0
6.737201500E0,1.406169410E0,2.737848217E0,-7.922170293E-1,3.178165051E0
6.747215500E0,1.164727059E0,2.297731218E0,-1.391513364E0,2.927877613E0
6.757229500E0,1.044776984E0,1.860307447E0,-2.106263119E0,2.998107248E0
6.767242500E0,1.091475480E0,1.485199792E0,-2.665836833E0,3.240960223E0
6.777256500E0,1.234403358E0,1.218667331E0,-2.816609627E0,3.307898351E0
6.787270500E0,1.186462036E0,8.126857924E-1,-2.715491388E0,3.072790888E0
6.797284500E0,1.104958282E0,3.997408050E-1,-2.461088390E0,2.727211320E0
6.807298500E0,8.296707845E-1,-1.783728218E-1,-2.188115805E0,2.346917394E0
6.817311500E0,1.862221241E-1,-1.011173036E0,-1.729263889E0,2.011840746E0
6.827325500E0,8.021707445E-2,-1.803832115E0,-1.684207292E0,2.469169755E0
6.837339500E0,-4.392349461E-1,-2.691013774E0,-1.976956622E0,3.367913294E0
6.847353500E0,-5.130560437E-1,-3.637389135E0,-1.852250423E0,4.113958903E0
6.857367500E0,-3.790849310E-1,-4.583817122E0,-2.048911142E0,5.035188344E0
6.867380500E0,-2.526926869E-1,-5.254336052E0,-2.359136192E0,5.765190761E0
6.877394500E0,6.016609490E-2,-5.606642489E0,-2.887128217E0,6.306628997E0
6.887408500E0,-1.741847536E-1,-5.077287624E0,-3.370698799E0,6.096786067E0
6.897422500E0,-4.615148842E-1,-3.824700596E0,-4.110402862E0,5.633537283E0
6.907436500E0,-6.925681955E-1,-3.321526639E0,-4.208068905E0,5.405555829E0
6.917449500E0,-1.130210945E0,-3.661394879E0,-3.149643642E0,4.960185915E0
6.927463500E0,-1.300765162E0,-4.065287207E0,-1.842020280E0,4.648826604E0
6.937477500E0,-1.643488890E0,-4.070678340E0,-3.197326224E-1,4.401557319E0
6.947491500E0,-2.009072893E0,-3.613048931E0,1.360455147E0,4.352164366E0
6.957505500E0,-2.335354835E0,-2.886839365E0,2.756371611E0,4.624425173E0
6.967519500E0,-2.750625260E0,-1.950292588E0,3.986381079E0,5.221189003E0
6.977532500E0,-3.078771003E0,-9.927975762E-1,4.563681650E0,5.593895612E0
6.987546500E0,-3.093172695E0,-2.003735554E-1,4.779556467E0,5.696668052E0
6.997560500E0,-2.741005713E0,6.133232206E-1,4.541581514E0,5.339966324E0
7.007574500E0,-2.431878917E0,1.162490206E0,3.602147674E0,4.498987265E0
7.017588500E0,-2.108567945E0,1.344878311E0,2.730549138E0,3.702790170E0
7.027601500E0,-1.729451731E0,1.353993536E0,1.869937373E0,2.884608737E0
7.037615500E0,-1.279514919E0,1.269242823E0,1.102585043E0,2.112777685E0
7.047629500E0,-7.872506967E-1,1.188775780E0,4.269123776E-1,1.488356709E0
7.057643500E0,-2.599075663E-1,1.086776365E0,-2.211767793E-2,1.117642162E0
7.067657500E0,1.853389022E-1,8.893837202E-1,-1.719033162E-1,9.246105453E-1
7.077670500E0,4.597507793E-1,4.151903182E-1,-2.919514775E-2,6.201662165E-1
7.087684500E0,4.128175181E-1,-3.990578502E-1,5.012817979E-2,5.763491177E-1
7.097698500E0,-4.639531732E-2,-1.137352442E0,4.001094720E-1,1.206569804E0
7.107712500E0,1.243042034E-1,-1.457526675E0,1.043355088E0,1.796781952E0
7.117726500E0,5.506480855E-1,-1.552518786E0,1.116692182E0,1.990107868E0
7.127739500E0,1.060585224E0,-1.289445537E0,1.045138489E0,1.969727208E0
7.137753500E0,1.557118791E0,-6.617866981E-1,9.037032589E-1,1.918139761E0
7.147767500E0,1.797936075E0,1.313635468E-1,6.193666103E-1,1.906159886E0
7.157781500E0,1.827458082E0,9.157710350E-1,3.971909805E-1,2.082306487E0
7.167795500E0,1.947304368E0,1.517866432E0,3.913380638E-1,2.499811651E0
7.177808500E0,2.208797700E0,2.055133749E0,3.764427204E-1,3.040406408E0
7.187822500E0,2.335514172E0,2.526375477E0,4.213936293E-1,3.466233126E0
7.197836500E0,2.374180055E0,2.968525552E0,6.131986749E-1,3.850310053E0
7.207850500E0,2.372859753E0,3.350782598E0,8.272278178E-1,4.188378360E0
7.217864500E0,2.265875880E0,3.619218328E0,9.349123339E-1,4.371154982E0
7.227877500E0,2.131090835E0,3.794376935E0,1.002590347E0,4.465874145E0
7.237891500E0,1.975986131E0,3.945360230E0,9.686054523E-1,4.517586197E0
7.247905500E0,1.753927299E0,3.963556180E0,7.797414100E-1,4.403865941E0
7.257919500E0,1.460322229E0,3.810922217E0,4.677632189E-1,4.107854864E0
7.267933500E0,1.078968870E0,3.377597344E0,1.358483613E-1,3.548350662E0
7.277946500E0,8.150983536E-1,2.914523007E0,-1.997316773E-1,3.032939569E0
7.287960500E0,7.268132910E-1,2.458836628E0,-4.845235316E-1,2.609386551E0
7.297974500E0,8.185449949E-1,1.918922276E0,-7.150745670E-1,2.205359437E0
7.307988500E0,1.034460450E0,1.443532534E0,-8.966553175E-1,1.989443479E0
7.318002500E0,1.149812858E0,9.252669132E-1,-1.014173827E0,1.790736447E0
7.328015500E0,1.164912708E0,3.633120668E-1,-1.024579532E0,1.593355106E0
7.338029500E0,1.046351932E0,-2.168305439E-1,-1.051083645E0,1.498881142E0
7.348043500E0,8.101413766E-1,-9.456508917E-1,-1.368956999E0,1.850575025E0
7.358057500E0,5.036271161E-1,-1.693371779E0,-2.145204113E0,2.779037413E0
7.368071500E0,1.382600453E-1,-2.523347788E0,-3.025327159E0,3.941954378E0
7.378085500E0,-1.466765276E-1,-3.320663590E0,-3.419950773E0,4.769107251E0
7.388098500E0,-3.263374910E-1,-4.045501984E0,-3.275017008E0,5.215200750E0
7.398112500E0,-3.115507597E-1,-4.612036954E0,-2.961177356E0,5.489673950E0
7.408126500E0,-2.178883052E-1,-4.972911317E0,-2.763447912E0,5.693326500E0
7.418140500E0,-1.310489666E-1,-4.995412572E0,-2.559382424E0,5.614424190E0
7.428154500E0,4.632023907E-1,-4.575069687E0,-2.218193737E0,5.105507081E0
7.438167500E0,1.316941484E0,-3.769990538E0,-2.240114948E0,4.578785702E0
7.448181500E0,1.793754146E0,-3.055568374E0,-2.350986197E0,4.252198034E0
7.458195500E0,1.443330805E0,-2.688435152E0,-2.032564520E0,3.666361398E0
7.468209500E0,7.409170675E-1,-3.178839959E0,-1.104217586E0,3.445762334E0
7.478223500E0,2.045636702E-1,-4.181242172E0,-3.232913840E-1,4.198708100E0
7.488236500E0,-6.871320391E-1,-4.591966971E0,6.675731027E-1,4.690838406E0
7.498250500E0,-1.107241035E0,-4.343294245E0,1.966382371E0,4.894573244E0
7.508264500E0,-1.040858181E0,-3.684850985E0,3.107008084E0,4.931025427E0
7.518278500E0,-8.473866785E-1,-2.756156434E0,3.738876919E0,4.721616575E0
7.528292500E0,-7.171756178E-1,-1.679393426E0,4.251218140E0,4.626830321E0
7.538305500E0,-5.592624959E-1,-8.466569459E-1,5.017169477E0,5.118749074E0
7.548319500E0,-2.642710510E-1,-4.266450137E-1,5.451847980E0,5.474898314E0
7.558333500E0,-9.017245612E-1,-4.570879573E-1,5.406960075E0,5.500659400E0
7.568347500E0,-2.059173591E0,-8.680665261E-1,4.824300238E0,5.316729084E0
7.578361500E0,-3.233293616E0,-1.323076383E0,3.811170139E0,5.170080904E0
7.588374083E0,-4.460193242E0,-1.504492096E0,2.059733315E0,5.138027010E0
7.598388083E0,-5.318298744E0,-1.319206111E0,2.046160027E-2,5.479509556E0
7.608402083E0,-5.362532930E0,-4.439416623E-1,-6.852561061E-1,5.424335863E0
7.618416083E0,-5.159466732E0,7.779936773E-1,-1.253307552E0,5.366204519E0
7.628430083E0,-4.940006111E0,1.650088350E0,-1.516386648E0,5.424562692E0
7.638443083E0,-4.687589412E0,2.558462073E0,-1.130324088E0,5.458649578E0
7.648457083E0,-2.990270178E0,3.041050322E0,-1.601577072E0,4.555738350E0
7.658471083E0,-8.842510343E-1,3.272715252E0,-1.675411033E0,3.781476847E0
7.668485083E0,1.272228411E0,3.196387453E0,-4.938757145E-1,3.475538966E0
7.678499083E0,3.681153206E0,1.709072138E0,3.557888052E0,5.397257071E0
7.688513083E0,5.093312504E0,1.573200973E0,2.443874187E0,5.864240326E0
7.698526083E0,5.088964514E0,2.283079265E0,6.781578056E-1,5.618710597E0
7.708540083E0,2.445573388E0,4.666381561E0,-3.621660125E-1,5.280824774E0
7.718554083E0,2.470715246E0,4.807546211E0,2.545678890E-1,5.411260408E0
7.728568083E0,2.561133665E0,3.139727349E0,1.462348874E0,4.307639459E0
7.738581083E0,3.320668268E0,3.018973575E0,2.532757274E-1,4.495018107E0
7.748595083E0,3.890134447E0,3.094779217E0,1.423363587E-1,4.973033688E0
7.758609083E0,3.961162330E0,2.636801314E0,-4.780602387E-1,4.782475276E0
7.768623083E0,3.288682244E0,3.258743330E0,-6.982817438E0,8.378220477E0
7.778637083E0,1.504993787E0,3.346028811E0,-2.540526323E0,4.462643735E0
7.788651083E0,1.983367363E0,2.466759020E0,9.030603576E-1,3.291529154E0
7.798664083E0,2.607222004E0,2.579244831E0,-3.636874580E0,5.164975043E0
7.808678083E0,1.537570379E0,3.574269027E0,-4.756265545E0,6.145045458E0
7.818692083E0,1.890818803E0,4.209007675E0,-3.066717260E0,5.540369672E0
7.828706083E0,2.493478457E0,4.062995099E0,-2.257688316E0,5.274705728E0
7.838720083E0,3.094416690E0,3.755233335E0,-1.188771687E0,5.009028865E0
7.848733083E0,2.841386619E0,2.372643406E0,1.010953181E0,3.837309081E0
7.858747083E0,1.216273481E-1,9.691911972E-1,-3.947823662E0,4.066870597E0
7.868761083E0,-1.845164913E-1,-6.396900702E-1,-6.217585309E0,6.253128560E0
7.878775083E0,1.666234851E0,-1.561914092E0,-9.258305848E-1,2.464361273E0
7.888789083E0,-9.674346936E-1,-2.188295315E0,-1.962903278E0,3.094762600E0
7.898802083E0,-2.178596538E-1,-1.687975384E0,-3.376693364E0,3.781373005E0
7.908816083E0,1.403514774E0,-6.397660840E-1,3.709280652E0,4.017202673E0
7.918830083E0,-3.147392464E-1,-1.441649145E0,1.644589044E0,2.209544337E0
7.928844083E0,-1.901167790E0,-2.917342535E0,-3.333185402E0,4.820316520E0
7.938858083E0,-1.521916214E0,-3.405145916E0,-1.667951009E0,4.085744515E0
7.948871083E0,-2.864366176E0,-3.817430753E0,-2.335275021E0,5.313273997E0
7.958885083E0,-3.898189571E0,-3.815017607E0,-3.527232270E0,6.495506813E0
7.968899083E0,-3.257170429E0,-3.565268408E0,-3.440168399E0,5.929169979E0
7.978913083E0,-3.245309937E0,-3.373493768E0,-5.020203012E0,6.864031984E0
7.988927083E0,-2.992048901E0,-2.805467758E0,-4.815586717E0,6.325573602E0
7.998940083E0,-2.335591940E0,-2.063017550E0,-2.549916952E0,4.026550333E0
8.008954083E0,-2.015235858E0,-2.013815569E0,-2.527283549E-2,2.849081857E0
8.018968083E0,-2.371245922E0,-3.147314111E0,-1.732434103E0,4.304616273E0
8.028982083E0,-3.044551050E0,-3.461824731E0,-1.258627056E0,4.778876817E0
8.038996083E0,-3.107485217E0,-2.096162492E0,2.590691048E0,4.556538343E0
8.049009083E0,-2.912878186E0,-5.583354199E-1,4.450198889E0,5.347977928E0
8.059023083E0,-3.756165966E0,-9.071838140E-2,3.774526223E0,5.325792035E0
8.069037083E0,-4.168994594E0,4.720398724E-2,3.176094106E0,5.241213401E0
8.079051083E0,-3.644408133E0,2.600584245E-1,2.486175284E0,4.419322184E0
8.089065083E0,-1.806413661E0,6.543712592E-1,1.345696921E0,2.345683752E0
8.099078083E0,7.625412405E-2,1.023010724E0,1.343774357E0,1.690590180E0
8.109092083E0,6.308426481E-1,1.190294886E0,2.112530018E0,2.505503431E0
8.119106083E0,3.737423301E-2,8.623766005E-1,2.217963502E0,2.380010994E0
8.129120083E0,-3.922212857E-1,5.565637136E-1,2.088972756E0,2.197136290E0
8.139134083E0,-4.618294644E-1,2.524131900E-1,1.308510969E0,1.410389956E0
8.149147083E0,-1.788025922E-1,2.269924200E-1,7.993715362E-1,8.499945756E-1
8.159161083E0,2.810072440E-1,3.312909597E-1,5.884054573E-1,7.313957570E-1
8.169175083E0,1.214197719E-1,4.100558782E-1,8.547389674E-1,9.557548256E-1
8.179189083E0,-1.821834522E-1,3.450512123E-1,9.318626455E-1,1.010256967E0
8.189203083E0,-4.031994331E-1,2.923297924E-1,7.078615880E-1,8.655024657E-1
8.199216083E0,-2.032714355E-1,3.020794398E-1,7.040212099E-1,7.926014940E-1
8.209230083E0,-8.655224025E-2,5.031686944E-1,7.717025118E-1,9.253079444E-1
8.219244083E0,2.153412580E-2,8.745662910E-1,8.203526616E-1,1.199294962E0
8.229258083E0,3.728167158E-1,1.300708444E0,7.684049014E-1,1.556046546E0
8.239272083E0,6.714620858E-1,1.593406026E0,1.039159053E0,2.017338751E0
8.249285083E0,1.483623968E0,1.876734615E0,1.092649308E0,2.630048555E0
8.259299083E0,1.820748110E0,1.967584559E0,7.165026033E-1,2.774867322E0
8.269313083E0,2.039866084E0,1.978241109E0,5.403798632E-1,2.892490609E0
8.279327083E0,2.527602807E0,1.864959492E0,6.072122955E-1,3.199305648E0
8.289341083E0,2.783740674E0,1.858053930E0,3.297900525E-1,3.363084600E0
8.299354083E0,2.842982324E0,1.777519060E0,1.389462161E-1,3.355805202E0
8.309368083E0,2.598542982E0,1.703482785E0,-6.808366343E-2,3.107879440E0
8.319382083E0,2.523762356E0,1.660156086E0,5.749238245E-2,3.021390414E0
8.329396083E0,2.735887061E0,1.777088705E0,-2.120245712E-1,3.269262408E0
8.339410083E0,2.807915402E0,1.773735911E0,-9.272975050E-2,3.322518141E0
8.349423083E0,2.699213909E0,1.651779950E0,-7.342114806E-2,3.165363074E0
8.359437083E0,2.860449126E0,1.419782898E0,-3.200042255E-1,3.209416674E0
8.369451083E0,2.662182907E0,1.197136129E0,-7.832802911E-1,3.022231089E0
8.379465083E0,2.536348488E0,9.445755887E-1,-1.420107564E0,3.056467273E0
8.389479083E0,2.778509755E0,7.343968374E-1,-7.872540589E-1,2.979802699E0
8.399492083E0,3.072017176E0,5.436086226E-1,-6.577581127E-1,3.188329594E0
8.409506083E0,2.716928633E0,2.277151358E-1,-5.659346075E-1,2.784571307E0
8.419520083E0,2.391380224E0,-1.793966693E-1,-3.299443460E-1,2.420691185E0
8.429534083E0,1.947413419E0,-9.571874481E-1,-6.066967173E-1,2.253155064E0
8.439548083E0,1.338430586E0,-1.693138475E0,-1.719620515E0,2.759566822E0
8.449561083E0,8.462072951E-1,-2.039747971E0,-2.400705218E0,3.261904982E0
8.459575083E0,2.221883476E-2,-2.452599987E0,-2.004506217E0,3.167615120E0
8.469589083E0,-7.484897965E-1,-2.599452808E0,-1.879202725E0,3.293750865E0
8.479603083E0,-1.526328523E0,-2.895004417E0,-2.099143403E0,3.888075662E0
8.489617083E0,-1.870170531E0,-2.997244737E0,-2.335687834E0,4.235144801E0
8.499630083E0,-2.016759058E0,-2.994825159E0,-2.592860365E0,4.445134385E0
8.509644083E0,-1.746210728E0,-2.870630298E0,-2.934958441E0,4.461362042E0
8.519658083E0,-1.417127677E0,-2.794619418E0,-2.383523905E0,3.936919450E0
8.529672083E0,-1.226013772E0,-1.833635373E0,-1.293010877E0,2.556795960E0
8.539686083E0,-7.247974634E-1,-1.466627866E0,-1.076940033E0,1.958603710E0
8.549699083E0,-1.429905013E0,-2.542014440E0,1.500244971E-1,2.920440567E0
8.559713083E0,-3.092366071E0,-3.652228199E0,-5.866745353E-2,4.785910635E0
8.569727083E0,-3.893717036E0,-4.227229938E0,6.723093474E-1,5.786406930E0
8.579741083E0,-3.902490199E0,-4.112580072E0,1.941105004E0,5.992548142E0
8.589754708E0,-3.159089819E0,-3.537318133E0,1.640614107E0,5.018374508E0
8.599767708E0,-2.537080559E0,-2.989515302E0,1.015957082E0,4.050450382E0
8.609781708E0,-2.536544369E0,-2.144700229E0,1.094970799E0,3.497535913E0
8.619795708E0,-2.455559848E0,-1.470107544E0,2.196933407E0,3.607978208E0
8.629809708E0,-3.127646416E0,-1.184407910E0,4.126823305E0,5.311841940E0
8.639823708E0,-4.104783980E0,-7.264475477E-1,5.528385694E0,6.923873623E0
8.649837708E0,-4.319507772E0,1.068806702E-1,5.343735301E0,6.872050483E0
8.659850708E0,-4.417334613E0,9.176123232E-1,4.162366190E0,6.138415900E0
8.669864708E0,-4.600579335E0,1.749471720E0,2.507901199E0,5.524088155E0
8.679878708E0,-4.763739456E0,2.543789070E0,7.825340402E-1,5.456778900E0
8.689892708E0,-4.727732302E0,2.728058224E0,-6.658247852E-1,5.498825060E0
8.699906708E0,-3.628710113E0,2.152980471E0,-1.932716442E0,4.640932540E0
8.709919708E0,-1.863314086E0,1.383545948E0,-1.850026288E0,2.967951489E0
8.719933708E0,-1.305753422E-1,1.095769967E0,-5.887549746E-1,1.250757435E0
8.729947708E0,1.238549618E0,8.705223566E-1,-1.226255409E-1,1.518832233E0
8.739961708E0,1.705024111E0,8.955998951E-1,6.306794377E-1,2.026564320E0
8.749975708E0,1.384710714E0,1.766467237E0,8.181506002E-1,2.388974815E0
8.759988708E0,1.275800475E0,3.296223983E0,2.969917774E-2,3.534634555E0
8.770002708E0,1.711509842E0,4.289571782E0,-4.754792047E-1,4.642819454E0
8.780016708E0,2.612030169E0,4.804005137E0,-3.122412793E-1,5.477103393E0
8.790030708E0,3.346999449E0,4.606936428E0,-5.289621513E-2,5.694652454E0
8.800043708E0,3.791417660E0,4.441551442E0,1.915805125E-1,5.842852914E0
8.810057708E0,3.975466374E0,4.207072831E0,8.455431975E-2,5.788863803E0
8.820071708E0,3.920565696E0,3.825955993E0,-1.531443886E-1,5.480166771E0
8.830085708E0,4.081879267E0,3.604849380E0,-2.196459782E-1,5.450222175E0
8.840099708E0,4.298017500E0,3.453665527E0,-3.936228998E-1,5.527720958E0
8.850112708E0,4.264419984E0,3.278685844E0,-4.485048294E-1,5.397797258E0
8.860126708E0,4.023143985E0,2.996929572E0,-5.034990621E-1,5.041902983E0
8.870140708E0,3.740180263E0,2.850356832E0,-5.972158957E-1,4.740268905E0
8.880154708E0,3.363680971E0,2.675522745E0,-9.833402896E-1,4.409050891E0
8.890168708E0,3.070561219E0,2.531643233E0,-1.516147935E0,4.258669772E0
8.900182708E0,3.044121280E0,2.360062537E0,-1.973015453E0,4.327743005E0
8.910195708E0,2.849969162E0,1.908123638E0,-2.921391732E0,4.505306836E0
8.920209708E0,2.425182393E0,1.172082564E0,-3.154773989E0,4.148238915E0
8.930223708E0,1.968406093E0,4.438942999E-1,-2.355250279E0,3.101430085E0
8.940237708E0,1.338412460E0,-5.857448280E-2,-1.558788171E0,2.055383041E0
8.950251708E0,8.846094686E-1,-7.163991076E-1,-1.498489344E0,1.881816120E0
8.960264708E0,3.992110473E-1,-1.245706025E0,-1.951951443E0,2.349737730E0
8.970278708E0,-2.543176281E-1,-1.236339955E0,-4.450374305E-1,1.338384196E0
8.980292708E0,-9.202915174E-1,-1.076027429E0,1.758387116E-1,1.426776351E0
8.990306708E0,-1.785453147E0,-1.824395603E0,-1.906277526E0,3.185930988E0
9.000320708E0,-2.439397559E0,-2.851112877E0,-2.314026093E0,4.408426233E0
9.010333708E0,-3.281239908E0,-3.645857658E0,-2.520567437E0,5.514714281E0
9.020347708E0,-3.661228234E0,-3.938007941E0,-3.195018035E0,6.254649388E0
9.030361708E0,-3.643252138E0,-3.965791571E0,-3.781361618E0,6.580234389E0
9.040375708E0,-3.402476662E0,-3.893312409E0,-4.436069677E0,6.812741234E0
9.050388708E0,-3.152656127E0,-3.838325778E0,-5.059593365E0,7.090237687E0
9.060402708E0,-3.140115019E0,-3.909982236E0,-6.381906102E0,8.116465297E0
9.070416708E0,-2.478914212E0,-3.496592860E0,-5.446888372E0,6.931072805E0
9.080430708E0,-1.631056248E0,-2.691074585E0,-1.806050549E0,3.628228974E0
9.090444708E0,-1.601663464E0,-2.470287230E0,-1.626017118E0,3.363268725E0
9.100458708E0,-1.584356291E0,-3.342563751E0,-2.467564766E0,4.446548455E0
9.110471708E0,-3.066836543E0,-2.959775194E0,1.562605379E0,4.539547461E0
9.120485708E0,-4.306486022E0,-2.191389661E0,4.602496637E0,6.673154112E0
9.130499708E0,-5.152172915E0,-1.959725901E0,5.424254969E0,7.733560198E0
9.140513708E0,-4.443412026E0,-1.855883444E0,5.179185297E0,7.071928601E0
9.150526708E0,-3.796469069E0,-1.788045217E0,5.137302861E0,6.633412680E0
9.160540708E0,-2.649876273E0,-1.814400373E0,4.779205341E0,5.758011520E0
9.170554708E0,-5.616133690E-1,-1.693174143E0,4.062880493E0,4.437256603E0
9.180568708E0,5.180902040E-1,-1.590066682E0,3.990118911E0,4.326404793E0
9.190582708E0,-1.397999096E-1,-1.335954875E0,3.533837285E0,3.780519197E0
9.200595708E0,-6.753335273E-1,-4.153265584E-1,3.141441168E0,3.239941995E0
9.210609708E0,-8.184944165E-1,8.289960158E-1,1.654407688E0,2.023420941E0
9.220623708E0,-9.867117941E-1,1.740040746E0,9.093624135E-1,2.197335196E0
9.230637708E0,-6.451770973E-1,2.575258784E0,5.302793097E-1,2.707287838E0
9.240651708E0,-5.800180650E-1,2.873801243E0,6.683086824E-1,3.006957106E0
9.250664708E0,-6.175267839E-1,2.875888699E0,5.296267605E-1,2.988742151E0
9.260678708E0,-3.803841823E-1,2.812113703E0,6.004355188E-1,2.900551399E0
9.270692708E0,-9.596567273E-2,2.590216547E0,4.154470110E-1,2.625076644E0
9.280706708E0,3.570999849E-1,2.565264139E0,4.223607953E-1,2.624212099E0
9.290720708E0,1.041272163E0,2.769802081E0,3.149836600E-1,2.975779896E0
9.300733708E0,1.459700670E0,2.868808306E0,4.201345045E-2,3.219091839E0
9.310747708E0,1.960922826E0,2.906163243E0,-2.363090079E-2,3.505932336E0
9.320761708E0,2.487590895E0,2.997188603E0,2.953549225E-2,3.895140605E0
9.330775708E0,2.914530024E0,3.066005654E0,1.221390160E-1,4.231996440E0
9.340789708E0,3.315304617E0,3.107034397E0,1.203451268E-1,4.545260212E0
9.350802708E0,3.742403959E0,3.104365143E0,2.411999846E-1,4.868351647E0
9.360816708E0,4.045440003E0,3.129630377E0,2.543001596E-1,5.121019399E0
9.370830708E0,4.011419148E0,2.978175797E0,4.351059347E-4,4.996099964E0
9.380844708E0,3.856757956E0,2.943856149E0,-2.842788342E-1,4.860214544E0
9.390858708E0,3.679562178E0,2.875512139E0,-4.479119217E-1,4.691308237E0
9.400871708E0,3.418060661E0,2.697059210E0,-3.937047243E-1,4.371758282E0
9.410885708E0,3.229870949E0,2.546566497E0,-1.029378927E-1,4.114324183E0
9.420899708E0,3.270629550E0,2.455758069E0,3.367540864E-1,4.103799296E0
9.430913708E0,3.348045516E0,2.226813848E0,1.253701508E-1,4.022912672E0
9.440927708E0,3.180760185E0,1.995032558E0,-1.979083693E-1,3.759861431E0
9.450940708E0,3.035848639E0,1.777493917E0,-1.105698247E-1,3.519671472E0
9.460954708E0,2.706874931E0,1.440446373E0,-2.056607540E-1,3.073166769E0
9.470968708E0,2.262677161E0,9.020663309E-1,-7.410480452E-1,2.546091869E0
9.480982708E0,2.285156196E0,2.755132002E-1,1.133916910E-1,2.304496483E0
9.490996708E0,2.015410105E0,-6.869332337E-1,-4.708819044E-1,2.180707437E0
9.501009708E0,1.531755908E0,-1.785220428E0,-1.722775673E0,2.915689310E0
9.511023708E0,1.110421336E0,-2.902477158E0,-1.801396165E0,3.591996289E0
9.521037708E0,8.690880346E-1,-4.099560662E0,-3.291895874E0,5.329004605E0
9.531051708E0,5.469122994E-1,-5.222211449E0,-2.999557310E0,6.047143916E0
9.541065708E0,3.166068470E-1,-5.835374456E0,-2.365584794E0,6.304587723E0
9.551078708E0,-2.845348692E-1,-5.821416568E0,-2.517335097E0,6.348765780E0
9.561092708E0,-9.882613063E-1,-4.803404043E0,-2.487530669E0,5.498832571E0
9.571106708E0,-1.478359720E0,-3.874753346E0,-2.751600283E0,4.977003624E0
9.581120708E0,-1.576025763E0,-3.844042016E0,-3.156729298E0,5.217801844E0
9.591135000E0,-1.561670263E0,-3.940080779E0,-2.935988721E0,5.155878230E0
9.601148000E0,-2.057626417E0,-3.943342940E0,-2.482192161E0,5.093629152E0
9.611162000E0,-2.336652625E0,-3.570235618E0,-2.074856408E0,4.744634545E0
9.621176000E0,-2.266923993E0,-2.967345584E0,-1.485873392E0,4.018943137E0
9.631190000E0,-3.038125545E0,-2.724872076E0,-4.202943528E-1,4.102655481E0
9.641204000E0,-3.779489924E0,-2.629923819E0,3.655726735E-1,4.618948664E0
9.651217000E0,-4.681797745E0,-3.427128523E0,2.789223608E0,6.437717637E0
9.661231000E0,-4.524760829E0,-4.415455318E0,4.473738610E0,7.744936628E0
9.671245000E0,-3.735410104E0,-4.773742288E0,4.047811342E0,7.288805165E0
9.681259000E0,-3.189816352E0,-3.747817311E0,3.108192730E0,5.820818242E0
9.691273000E0,-2.613579097E0,-2.068380032E0,2.248664747E0,4.020632387E0
9.701286000E0,-2.284430557E0,-1.945421273E-1,2.025027605E0,3.058955117E0
9.711300000E0,-2.518712116E0,1.256729781E0,2.082258983E0,3.501297322E0
9.721314000E0,-3.028491672E0,2.157960545E0,2.034321170E0,4.238751956E0
9.731328000E0,-3.729962838E0,2.785462679E0,1.834607180E0,5.003719478E0
9.741341000E0,-4.131317475E0,3.163986862E0,1.388810781E0,5.385851124E0
9.751355000E0,-4.440607116E0,3.222081288E0,6.607529104E-1,5.526064947E0
9.761369000E0,-4.528356282E0,2.855758490E0,4.474991083E-2,5.353818237E0
9.771383000E0,-3.979555331E0,2.288620087E0,3.677781701E-2,4.590859957E0
9.781397000E0,-2.616790388E0,1.554272951E0,3.731343658E-1,3.066363578E0
9.791410000E0,-1.163829803E0,8.769309050E-1,3.988632841E-1,1.510827437E0
9.801424000E0,5.156484067E-2,5.113682449E-1,3.929564269E-1,6.469707629E-1
9.811438000E0,4.905486488E-1,4.350889778E-1,7.597240520E-1,1.003554199E0
9.821452000E0,4.429429579E-1,7.356077957E-1,1.242105310E0,1.510014203E0
9.831466000E0,9.253031659E-1,1.278435230E0,1.109717331E0,1.929262849E0
9.841479000E0,1.474862500E0,1.706402884E0,7.885237817E-1,2.389309513E0
9.851493000E0,2.070088588E0,1.943267743E0,5.718737707E-1,2.896307286E0
9.861507000E0,2.638164300E0,2.106924292E0,4.944464028E-1,3.412259968E0
9.871521000E0,3.196571640E0,2.250888589E0,4.993323362E-1,3.941307204E0
9.881535000E0,3.880897016E0,2.405612347E0,6.277980760E-1,4.608954636E0
9.891548000E0,4.400565383E0,2.571383250E0,5.945355320E-1,5.131321468E0
9.901562000E0,4.694856917E0,2.686448268E0,4.396310949E-1,5.426966120E0
9.911576000E0,4.773251706E0,2.793239475E0,4.480244806E-1,5.548589420E0
9.921590000E0,5.101272318E0,2.985425175E0,3.203282344E-1,5.919320309E0
9.931604000E0,5.158545211E0,3.147748559E0,1.597506825E-1,6.045198919E0
9.941617000E0,5.111796722E0,3.298916625E0,-1.766454812E-1,6.086420972E0
9.951631000E0,5.193343745E0,3.513165624E0,-7.001024790E-1,6.308985294E0
9.961645000E0,5.003112770E0,3.604381603E0,-1.168217554E0,6.275941076E0
9.971659000E0,4.518173355E0,3.513274966E0,-1.734226860E0,5.980345664E0
9.981673000E0,4.025089354E0,3.214438977E0,-2.277025058E0,5.631945078E0
9.991686000E0,3.635213386E0,2.797083435E0,-2.475036339E0,5.211934093E0
1.000170000E1,3.133824584E0,2.251223634E0,-1.994828929E0,4.343754923E0
1.001171400E1,2.566175135E0,1.699227181E0,-1.174987387E0,3.294423044E0
1.002172800E1,1.963486830E0,1.071910989E0,-9.500452204E-1,2.430403181E0
1.003174100E1,1.246766710E0,4.366589552E-1,-1.061059141E0,1.694386253E0
1.004175500E1,9.944885910E-2,-3.309372032E-1,-1.427908920E0,1.469126744E0
1.005176900E1,-7.814242387E-1,-9.546076566E-1,-1.562331583E0,1.990673151E0
1.006178300E1,-1.450129947E0,-1.317047319E0,-5.756725605E-1,2.041785836E0
1.007179700E1,-2.191094962E0,-2.035866589E0,-9.407344066E-2,2.992407010E0
1.008181000E1,-3.244731063E0,-3.081730571E0,-2.158038751E0,4.968145955E0
1.009182400E1,-4.075643796E0,-4.014412338E0,-2.771335806E0,6.356624963E0
1.010183800E1,-4.975573554E0,-4.649046906E0,-3.159331309E0,7.506753202E0
1.011185200E1,-5.446035263E0,-4.651820825E0,-4.375227059E0,8.392934462E0
1.012186600E1,-4.943772887E0,-4.135567231E0,-4.670393336E0,7.959672141E0
1.013187900E1,-4.097826962E0,-3.821525558E0,-4.344584141E0,7.090250684E0
1.014189300E1,-3.391237144E0,-3.753102610E0,-3.133846804E0,5.950400352E0
1.015190700E1,-2.574130272E0,-4.395370132E0,-2.265987854E0,5.574955265E0
1.016192100E1,-3.307477534E0,-4.871662685E0,-2.396352696E0,6.357280173E0
1.017193500E1,-3.877969900E0,-4.959480847E0,-1.816424386E0,6.552442168E0
1.018194800E1,-4.108161331E0,-4.735007992E0,7.721936779E-1,6.316135946E0
1.019196200E1,-5.233513532E0,-4.120207180E0,4.443454710E0,8.006875849E0
1.020197600E1,-6.799735268E0,-4.013621795E0,5.630978601E0,9.698117324E0
1.021199000E1,-7.637800316E0,-3.741501734E0,5.191952108E0,9.964496755E0
1.022200400E1,-6.034362221E0,-3.225503663E0,3.381391017E0,7.632247802E0
1.023201700E1,-2.101840723E0,-2.077059054E0,2.452517542E0,3.840149871E0
1.024203100E1,1.910865397E0,6.618311369E-1,1.032605347E0,2.270616838E0
1.025204500E1,2.529857494E0,1.878791081E0,5.561871529E-3,3.151200691E0
1.026205900E1,2.010287944E0,2.196325881E0,-1.797271100E-1,2.982852130E0
1.027207300E1,1.416551726E0,2.710729415E0,1.695746334E0,3.497174343E0
1.028208600E1,1.218284338E0,3.458725707E0,2.350873053E0,4.355870103E0
1.029210000E1,1.759489755E0,4.276629555E0,1.564610828E0,4.881943423E0
1.030211400E1,1.833325471E0,4.614211534E0,1.101185147E0,5.085728963E0
1.031212800E1,1.308936061E0,4.258035409E0,8.939633325E-1,4.543495306E0
1.032214200E1,9.336366177E-1,3.483144849E0,5.839825503E-1,3.653082396E0
1.033215500E1,5.409931630E-1,2.328730232E0,6.400924317E-1,2.474949781E0
1.034216900E1,-2.878642738E-1,1.399771387E0,3.289533891E-2,1.429443206E0
1.035218300E1,-6.086542189E-1,3.096714646E-1,-6.732238519E-1,9.589508480E-1
1.036219700E1,1.298397624E-1,-6.719795644E-2,-9.842976250E-2,1.762451344E-1
1.037221000E1,9.903125095E-1,7.258926469E-1,1.144372682E0,1.678459960E0
1.038222400E1,1.525004128E0,1.461895130E0,1.566974273E0,2.630243968E0
1.039223800E1,2.186804860E0,2.022779936E0,1.245392615E0,3.228739216E0
1.040225200E1,3.445917381E0,2.559204084E0,1.421272184E0,4.521491652E0
1.041226600E1,4.143911793E0,3.020623659E0,1.186905255E0,5.263545983E0
1.042227900E1,4.013889012E0,3.271955114E0,7.869415983E-1,5.237964524E0
1.043229300E1,3.629337519E0,3.228897387E0,7.792993605E-1,4.919875675E0
1.044230700E1,2.938718201E0,2.895887346E0,4.222812366E-1,4.147354534E0
1.045232100E1,2.302895479E0,2.579174080E0,2.781719291E-1,3.468839308E0
1.046233500E1,1.992439903E0,2.410211767E0,2.740823865E-1,3.139117501E0
1.047234800E1,2.360962424E0,1.929704542E0,1.025178360E0,3.216969669E0
1.048236200E1,2.597623215E0,1.318571688E0,3.158480246E-1,2.930194129E0
1.049237600E1,3.070698629E0,1.008686215E0,-5.335927807E-2,3.232566343E0
1.050239000E1,3.461734684E0,4.843207794E-1,-1.372340052E-1,3.498143338E0
1.051240400E1,3.444126379E0,-2.779690307E-1,-6.366423552E-1,3.513486414E0
1.052241700E1,3.190171863E0,-1.160549515E0,-8.836066711E-1,3.507824460E0
1.053243100E1,2.979237067E0,-1.873482978E0,-6.902790105E-1,3.586401690E0
1.054244500E1,2.663081625E0,-2.308050385E0,-7.270194054E-1,3.598285360E0
1.055245900E1,2.471038013E0,-2.243276684E0,-3.369117419E-1,3.354374556E0
1.056247300E1,2.377234640E0,-1.318068243E0,-3.733258621E-1,2.743705638E0
1.057248600E1,1.932401277E0,-6.131869805E-1,-7.762493797E-1,2.170883707E0
1.058250000E1,1.138491479E0,-8.273266357E-1,-1.211365109E0,1.856889236E0
1.059251383E1,5.572899377E-1,-1.262315041E0,-1.947029111E0,2.386406021E0
1.060252783E1,1.142452383E-1,-1.781875235E0,-2.610402889E0,3.162646767E0
1.061254083E1,-3.813817173E-1,-2.228767403E0,-2.138993347E0,3.112579105E0
1.062255483E1,-9.123942679E-1,-2.710914187E0,-2.082605138E0,3.538186427E0
1.063256883E1,-1.464241033E0,-3.209302198E0,-2.329874532E0,4.227521465E0
1.064258283E1,-1.827839028E0,-3.528758978E0,-2.423248427E0,4.654596478E0
1.065259683E1,-1.960671980E0,-3.668199284E0,-2.908233157E0,5.075208439E0
1.066260983E1,-1.941440488E0,-3.818835838E0,-3.092816892E0,5.283768982E0
1.067262383E1,-1.958689774E0,-3.915385063E0,-2.811123769E0,5.202799503E0
1.068263783E1,-1.805387474E0,-3.837658026E0,-2.248280000E0,4.800188123E0
1.069265183E1,-1.853525262E0,-3.577668014E0,-1.574076301E0,4.325850265E0
1.070266583E1,-2.346774155E0,-3.392877288E0,-5.527827577E-1,4.162275099E0
1.071267883E1,-2.703551958E0,-3.235966671E0,1.356397326E0,4.429501913E0
1.072269283E1,-3.054657962E0,-2.818485999E0,3.138538902E0,5.208188268E0
1.073270683E1,-3.445574149E0,-2.851654914E0,4.307277735E0,6.209392761E0
1.074272083E1,-3.220121886E0,-2.730914004E0,3.597897041E0,5.547246107E0
1.075273483E1,-2.318571864E0,-1.675198048E0,2.071329513E0,3.531638422E0
1.076274783E1,-1.786630776E0,-8.163467342E-1,1.209964408E0,2.307051232E0
1.077276183E1,-1.956844393E0,-1.322944236E-1,9.705488475E-1,2.188311417E0
1.078277583E1,-2.476101701E0,8.703562957E-1,1.334326426E0,2.944321098E0
1.079278983E1,-3.474136044E0,1.925639557E0,1.121419948E0,4.127383149E0
1.080280383E1,-4.298225076E0,2.770328915E0,3.476544658E-1,5.125458490E0
1.081281683E1,-4.733869539E0,3.364865617E0,-1.241116838E-1,5.809237914E0
1.082283083E1,-4.744560589E0,3.431180059E0,-7.029522657E-2,5.855663344E0
1.083284483E1,-4.504802527E0,2.846916330E0,4.817265160E-1,5.350723207E0
1.084285883E1,-4.095854112E0,1.884234254E0,1.349459020E0,4.706102344E0
1.085287183E1,-3.053367482E0,1.201950726E0,2.049557844E0,3.868904998E0
1.086288583E1,-2.106855880E0,4.912520689E-1,1.961259041E0,2.920052623E0
1.087289983E1,-1.228590640E0,2.848061800E-2,1.816582553E0,2.193220983E0
1.088291383E1,-4.125771976E-1,2.311334181E-1,1.492352107E0,1.565489512E0
1.089292783E1,5.613122374E-1,6.118450445E-1,1.049950528E0,1.338589518E0
1.090294083E1,8.887229848E-1,1.101558126E0,6.022363150E-1,1.538163655E0
1.091295483E1,1.103137459E0,1.584553927E0,3.651598600E-1,1.964959319E0
1.092296883E1,1.577952420E0,2.180951212E0,2.584703938E-1,2.704309334E0
1.093298283E1,2.042253503E0,2.493912320E0,1.466377898E-1,3.226747692E0
1.094299683E1,2.841012397E0,2.674577835E0,2.246150152E-1,3.908346190E0
1.095300983E1,3.267246351E0,2.667274078E0,1.316841204E-1,4.219785591E0
1.096302383E1,3.620520503E0,2.608066927E0,6.468314208E-2,4.462551480E0
1.097303783E1,4.129991911E0,2.575891453E0,3.038178901E-1,4.876920675E0
1.098305183E1,4.578883826E0,2.624714534E0,3.711380533E-1,5.290845578E0
1.099306583E1,4.756336881E0,2.642821022E0,2.338184595E-1,5.446275292E0
1.100307883E1,4.909235138E0,2.777873577E0,-4.434528351E-2,5.640845483E0
1.101309283E1,4.958844085E0,2.898233834E0,-3.882012884E-1,5.756786800E0
1.102310683E1,4.992055686E0,2.978954646E0,-8.575653653E-1,5.876241069E0
1.103312083E1,4.848704177E0,2.954967613E0,-1.238035648E0,5.811583094E0
1.104313483E1,4.429665222E0,2.672167613E0,-1.858163273E0,5.496834041E0
1.105314783E1,3.875281935E0,2.700020240E0,-2.177698406E0,5.200989302E0
1.106316183E1,3.404851801E0,2.795130465E0,-2.306270492E0,4.972389132E0
1.107317583E1,3.267379083E0,2.628793552E0,-1.976814973E0,4.636175045E0
1.108318983E1,2.927013829E0,2.128886434E0,-1.614570608E0,3.963130790E0
1.109320283E1,2.192068523E0,1.373018036E0,-1.462863429E0,2.971584148E0
1.110321683E1,1.274940934E0,6.086249828E-1,-1.629773369E0,2.156863461E0
1.111323083E1,3.641797936E-1,1.863156796E-2,-1.925048404E0,1.959281862E0
1.112324483E1,-5.228738111E-1,-5.365171194E-1,-2.140407203E0,2.267728079E0
1.113325883E1,-1.272411429E0,-1.030768225E0,-2.109614596E0,2.670578163E0
1.114327183E1,-1.929339675E0,-1.471284004E0,-1.188568130E0,2.701799845E0
1.115328583E1,-2.640127795E0,-2.123748486E0,-8.907566464E-1,3.503431148E0
1.116329983E1,-3.224494434E0,-2.999521642E0,-1.291834710E0,4.589480510E0
1.117331383E1,-3.734311413E0,-3.788164853E0,-1.740580444E0,5.596864744E0
1.118332783E1,-3.974812655E0,-4.321892851E0,-2.459497948E0,6.366083852E0
1.119334083E1,-3.635691104E0,-4.239580427E0,-3.219324911E0,6.446421091E0
1.120335483E1,-3.320774102E0,-3.744426511E0,-4.096019003E0,6.467274713E0
1.121336883E1,-2.982898593E0,-3.369367973E0,-4.887273581E0,6.643475567E0
1.122338283E1,-2.513040317E0,-2.936556485E0,-4.770229865E0,6.139529998E0
1.123339683E1,-2.684847885E0,-2.486310355E0,-3.053875605E0,4.766162351E0
1.124340983E1,-3.120430952E0,-2.380368163E0,-1.461567686E0,4.188009315E0
1.125342383E1,-3.300197750E0,-2.664499574E0,-1.639351108E0,4.547343755E0
1.126343783E1,-3.724313843E0,-2.149902497E0,-4.129186749E-1,4.320080576E0
1.127345183E1,-3.869900157E0,-7.355943471E-1,2.447316882E0,4.637519401E0
1.128346583E1,-4.241699458E0,1.552657950E-1,4.046072087E0,5.864027719E0
1.129347883E1,-4.629893181E0,-2.213521957E-2,4.292244544E0,6.313458962E0
1.130349283E1,-3.098020914E0,-5.713612622E-1,3.679555746E0,4.843894896E0
1.131350683E1,-9.578019905E-1,-3.358921337E-1,3.378564473E0,3.527733845E0
1.132352083E1,4.909602928E-1,3.983123302E-3,3.416248609E0,3.451349364E0
1.133353383E1,7.923041528E-1,5.348413074E-1,3.917112038E0,4.032067437E0
1.134354783E1,2.925420463E-2,9.843039107E-1,4.308798012E0,4.419892567E0
1.135356183E1,-1.078628855E0,1.000367966E0,3.975478945E0,4.238939622E0
1.136357583E1,-1.466254229E0,7.527740514E-1,2.606668857E0,3.084038386E0
1.137358983E1,-1.263420165E0,2.390061092E-1,1.264217141E0,1.803219180E0
1.138360283E1,-1.186387192E0,-1.795644844E-1,5.251875544E-1,1.309801489E0
1.139361683E1,-1.476152980E0,-8.447250259E-1,2.530071209E-1,1.719476837E0
1.140363083E1,-1.576943191E0,-1.613775972E0,6.367923363E-1,2.344467358E0
1.141364483E1,-1.074914703E0,-1.883154273E0,1.208794746E0,2.482518152E0
1.142365883E1,-4.373226142E-1,-1.876776715E0,1.206099472E0,2.273371470E0
1.143367183E1,4.141816735E-2,-1.578137192E0,8.226412618E-1,1.780160416E0
1.144368583E1,4.475271749E-1,-1.060749823E0,6.359020977E-1,1.315234670E0
1.145369983E1,1.181625804E0,-4.448590904E-1,6.336497502E-1,1.412675178E0
1.146371383E1,1.936838729E0,1.827962404E-1,5.598182738E-1,2.024390088E0
1.147372783E1,2.612327793E0,7.260651398E-1,3.631670558E-1,2.735565279E0
1.148374083E1,3.111674162E0,1.203566312E0,3.990150194E-1,3.360104305E0
1.149375483E1,3.574113491E0,1.588044130E0,5.751251149E-1,3.953092499E0
1.150376883E1,3.955205187E0,1.900230482E0,7.975542216E-1,4.459889762E0
1.151378283E1,3.885474801E0,2.598577480E0,1.009956815E0,4.782209962E0
1.152379583E1,4.051314701E0,3.260654785E0,8.326541801E-1,5.266719417E0
1.153380983E1,4.289067167E0,2.742202054E0,3.886841588E-1,5.105569962E0
1.154382383E1,3.839271272E0,2.187921093E0,1.933965115E-1,4.423166832E0
1.155383783E1,3.576749416E0,1.978449855E0,2.798840670E-1,4.097039822E0
1.156385183E1,3.453987708E0,2.128499933E0,2.871474051E-1,4.067308285E0
1.157386483E1,3.389330367E0,2.147861819E0,2.409321821E-1,4.019815797E0
1.158387883E1,3.435237442E0,2.215960831E0,3.016381212E-1,4.099063825E0
1.159389296E1,3.422875843E0,2.135236511E0,3.078395319E-1,4.045995449E0
1.160390696E1,3.299611275E0,1.981809665E0,1.742304350E-1,3.852967734E0
1.161392096E1,3.298954048E0,1.787452310E0,2.735459045E-2,3.752176947E0
1.162393396E1,3.050975386E0,1.437478911E0,-2.233109399E-1,3.380039083E0
1.163394796E1,2.671913259E0,1.062957732E0,-5.076858146E-1,2.920058987E0
1.164396196E1,2.236423747E0,6.981908780E-1,-8.283363768E-1,2.484995539E0
1.165397596E1,1.722318420E0,3.208004701E-1,-1.203601395E0,2.125546989E0
1.166398996E1,1.167828130E0,-1.508166486E-1,-1.735061988E0,2.096904458E0
1.167400296E1,4.885781372E-1,-7.501615155E-1,-2.427876059E0,2.587669425E0
1.168401696E1,-2.027907944E-1,-1.494200996E0,-2.759360708E0,3.144492366E0
1.169403096E1,-7.698151767E-1,-2.211622197E0,-1.903267525E0,3.017667215E0
1.170404496E1,-1.173434440E0,-2.785117693E0,-9.837555881E-1,3.178302063E0
1.171405896E1,-1.684544238E0,-3.278406347E0,-1.271063207E0,3.898876651E0
1.172407196E1,-1.749803842E0,-3.628036514E0,-2.396043963E0,4.686735442E0
1.173408596E1,-1.533372663E0,-3.909879910E0,-3.382755758E0,5.392720014E0
1.174409996E1,-1.550134292E0,-4.192536069E0,-3.308656332E0,5.561248217E0
1.175411396E1,-1.681676763E0,-4.234645377E0,-2.358860203E0,5.130738705E0
1.176412696E1,-1.711937274E0,-3.898031112E0,-2.441474490E0,4.907766647E0
1.177414096E1,-1.662082744E0,-3.385915008E0,-2.575093893E0,4.567061205E0
1.178415496E1,-2.071290776E0,-2.978120248E0,-1.414850918E0,3.893744831E0
1.179416896E1,-3.340062897E0,-2.893788196E0,8.802702498E-1,4.506096536E0
1.180418296E1,-4.853737460E0,-2.729181474E0,1.602468041E0,5.794402702E0
1.181419596E1,-5.087963471E0,-2.820239578E0,1.854487714E0,6.105755337E0
1.182420996E1,-4.537466828E0,-2.927227253E0,2.714044787E0,6.043451308E0
1.183422396E1,-3.883195556E0,-2.762318230E0,2.800997561E0,5.527675558E0
1.184423796E1,-2.911588874E0,-1.883889268E0,2.407123414E0,4.221449002E0
1.185425096E1,-2.251828237E0,-8.258297485E-1,2.748729300E0,3.648045771E0
1.186426496E1,-2.053720477E0,3.067525345E-1,3.411271459E0,3.993574574E0
1.187427896E1,-2.224494842E0,1.329214790E0,3.576207379E0,4.416384096E0
1.188429296E1,-2.790832762E0,2.432021297E0,3.303181000E0,4.961298198E0
1.189430696E1,-3.493610780E0,3.395549465E0,2.876835948E0,5.657849196E0
1.190431996E1,-4.341392730E0,3.885466030E0,1.868927997E0,6.118613321E0
1.191433396E1,-4.700412356E0,3.895050201E0,6.917188874E-1,6.143595642E0
1.192434796E1,-4.442765908E0,3.486749657E0,-1.492794156E-2,5.647637996E0
1.193436196E1,-3.635273028E0,2.764079996E0,8.924590632E-2,4.567637578E0
1.194437596E1,-2.210223543E0,2.118591242E0,6.890325303E-1,3.138197379E0
1.195438896E1,-9.200523663E-1,1.579035909E0,7.803530288E-1,1.987159180E0
1.196440296E1,-1.960571408E-2,1.096511979E0,7.694596660E-1,1.339698131E0
1.197441696E1,4.650220442E-1,8.876435888E-1,7.260126610E-1,1.237437282E0
1.198443096E1,7.800062889E-1,8.958039629E-1,7.495664151E-1,1.404537063E0
1.199444496E1,1.231306672E0,1.028472608E0,4.574946311E-1,1.668284557E0
1.200445796E1,1.759824800E0,1.216415568E0,1.262891869E-1,2.143035026E0
1.201447196E1,2.216194135E0,1.333147627E0,4.317467093E-2,2.586631611E0
1.202448596E1,2.678139374E0,1.427100103E0,7.919936657E-2,3.035674184E0
1.203449996E1,3.032967131E0,1.460411691E0,1.849754977E-1,3.371336213E0
1.204451296E1,3.505052612E0,1.451880019E0,3.989800823E-1,3.814778435E0
1.205452696E1,3.988386966E0,1.432549708E0,6.912964261E-1,4.293870050E0
1.206454096E1,3.923996258E0,1.335710462E0,7.749839692E-1,4.216926514E0
1.207455496E1,4.058712013E0,1.206300470E0,7.259177899E-1,4.295958644E0
1.208456896E1,4.062182336E0,1.266462471E0,5.078727794E-1,4.285228965E0
1.209458196E1,3.754041672E0,1.476679230E0,-2.296201587E-1,4.040561328E0
1.210459596E1,4.117392331E0,1.893469346E0,-1.101157153E0,4.663763807E0
1.211460996E1,4.168615694E0,2.447683648E0,-1.709331754E0,5.127409394E0
1.212462396E1,3.785088633E0,2.767667847E0,-1.920255003E0,5.066977457E0
1.213463796E1,3.339476421E0,2.768229180E0,-1.992308779E0,4.773310155E0
1.214465096E1,3.120468959E0,2.714672193E0,-1.766141986E0,4.497335784E0
1.215466496E1,2.971288362E0,2.490388203E0,-1.483491382E0,4.151064275E0
1.216467896E1,2.678928748E0,1.980450772E0,-1.384426539E0,3.607697512E0
1.217469296E1,2.260434753E0,1.319618924E0,-1.452062306E0,2.993233088E0
1.218470596E1,1.850595807E0,7.539224446E-1,-1.655420134E0,2.594902640E0
1.219471996E1,1.445336984E0,4.468582535E-1,-1.865071174E0,2.401493656E0
1.220473396E1,9.052682662E-1,2.114060819E-1,-1.982970045E0,2.190062411E0
1.221474796E1,5.649439430E-1,-4.347498393E-1,-1.051183194E0,1.270100464E0
1.222476196E1,-2.778924322E-1,-9.260311443E-1,-2.566226006E-2,9.671692900E-1
1.223477496E1,-1.478073791E0,-9.209271097E-1,-4.521909142E-1,1.799245813E0
1.224478896E1,-2.424447398E0,-1.184850544E0,-8.626233530E-1,2.833008127E0
1.225480296E1,-3.094057086E0,-1.746628804E0,-1.284253356E0,3.777989957E0
1.226481696E1,-3.606094837E0,-2.722070090E0,-2.281051305E0,5.061302264E0
1.227483096E1,-4.475191058E0,-3.622029085E0,-3.474304444E0,6.724375143E0
1.228484396E1,-4.617299448E0,-4.211085191E0,-4.151587433E0,7.502557623E0
1.229485796E1,-3.904102276E0,-4.189604859E0,-4.394573157E0,7.218523165E0
1.230487196E1,-3.075683965E0,-3.790331247E0,-4.966161876E0,6.963419174E0
1.231488596E1,-2.298562692E0,-3.344634250E0,-4.656554146E0,6.176849135E0
1.232489896E1,-1.884228991E0,-2.821937610E0,-2.264512163E0,4.079419824E0
1.233491296E1,-2.958373616E0,-2.728208497E0,-2.375339996E0,4.673043564E0
1.234492696E1,-3.783492928E0,-2.882640479E0,-2.546622630E0,5.395342593E0
1.235494096E1,-3.668790438E0,-2.612223127E0,4.801150234E-1,4.529265214E0
1.236495496E1,-4.061805190E0,-1.400405810E0,2.538921847E0,4.990543255E0
1.237496796E1,-4.579891301E0,-4.597461015E-1,2.616757643E0,5.294732418E0
1.238498196E1,-4.265583580E0,9.250178218E-2,2.982734871E0,5.205810904E0
1.239499596E1,-3.602956052E0,1.020502853E-1,2.977467991E0,4.675149432E0
1.240500996E1,-2.818819290E0,1.087131876E-1,2.571786708E0,3.817282753E0
1.241502396E1,-1.307102374E0,3.928896224E-1,2.328595161E0,2.699117318E0
1.242503696E1,5.635628307E-1,6.725297874E-1,2.591793541E0,2.736291859E0
1.243505096E1,1.197550111E0,8.403992558E-1,3.310345008E0,3.619223847E0
1.244506496E1,3.325545430E-1,7.079241532E-1,3.726096075E0,3.807301024E0
1.245507896E1,-5.928509492E-1,4.150616795E-1,3.398364315E0,3.474568817E0
1.246509196E1,-8.510020119E-1,3.435742056E-1,2.494295897E0,2.657773445E0
1.247510596E1,-8.728314221E-1,2.734853858E-1,1.939641007E0,2.144489726E0
1.248511996E1,-9.478231323E-1,1.315319467E-1,1.500552388E0,1.779698517E0
1.249513396E1,-7.800922430E-1,5.558889449E-2,1.090169066E0,1.341679032E0
1.250514796E1,-6.570106924E-1,-1.557557917E-1,8.778787386E-1,1.107517041E0
1.251516096E1,-3.908746719E-1,-3.237907362E-1,7.801974928E-1,9.307693473E-1
1.252517496E1,9.928572178E-3,-2.198675877E-1,9.270538223E-1,9.528216633E-1
1.253518896E1,6.460647047E-1,8.474311173E-2,1.075156924E0,1.257196647E0
1.254520296E1,1.419737874E0,4.753599215E-1,1.098342304E0,1.856873314E0
1.255521596E1,2.024663324E0,8.854941523E-1,8.703943026E-1,2.375067938E0
1.256522996E1,2.643665945E0,1.277297947E0,6.832215674E-1,3.014506823E0
1.257524396E1,3.378666215E0,1.708309076E0,6.528828505E-1,3.841869507E0
1.258525796E1,3.937572908E0,2.130982661E0,5.051783824E-1,4.505637880E0
1.259527158E1,4.389534026E0,2.458106895E0,2.265092938E-1,5.036030673E0
1.260528458E1,4.640688311E0,2.725396571E0,3.536314166E-1,5.393406127E0
1.261529858E1,4.790478773E0,2.914142938E0,6.728763811E-1,5.647448855E0
1.262531258E1,4.666468685E0,2.929845051E0,7.633129267E-1,5.562604483E0
1.263532658E1,4.316985868E0,2.784458712E0,6.372624524E-1,5.176454456E0
1.264533958E1,3.718219875E0,2.831898342E0,3.264219832E-1,4.685227697E0
1.265535358E1,3.403081849E0,2.416142598E0,-3.289549971E-1,4.186516752E0
1.266536758E1,3.171892297E0,1.182961308E0,-6.195709705E-1,3.441535470E0
1.267538158E1,2.782923818E0,3.838276076E-1,-3.978445530E-1,2.837299578E0
1.268539558E1,2.408527184E0,4.328050554E-2,-2.292831398E-1,2.419803124E0
1.269540858E1,2.107417213E0,-1.211730194E-1,-1.738717814E-1,2.118046649E0
1.270542258E1,2.017937272E0,-2.421133196E-1,-4.034802456E-1,2.072072875E0
1.271543658E1,1.995372866E0,-3.156309468E-1,-8.148213418E-1,2.178318064E0
1.272545058E1,1.784230494E0,-4.952012783E-1,-1.337112186E0,2.283981558E0
1.273546458E1,1.397362334E0,-7.869065881E-1,-1.557492720E0,2.235537306E0
1.274547758E1,8.170776361E-1,-1.227275602E0,-1.526719701E0,2.122426515E0
1.275549158E1,3.078120500E-1,-1.676443505E0,-1.614092014E0,2.347446296E0
1.276550558E1,8.820524812E-3,-2.004332555E0,-1.934497650E0,2.785625235E0
1.277551958E1,-1.843018985E-1,-2.344029472E0,-1.882116831E0,3.011777734E0
1.278553258E1,-3.146638173E-1,-2.338802061E0,-1.642618532E0,2.875274603E0
1.279554658E1,-5.230334401E-1,-2.093825945E0,-1.771717014E0,2.792248600E0
1.280556058E1,-8.784611213E-1,-1.903482118E0,-2.288018993E0,3.103219140E0
1.281557458E1,-1.168867180E0,-1.849184874E0,-2.379316103E0,3.232163408E0
1.282558858E1,-1.316876580E0,-1.925504487E0,-2.537134938E0,3.446561352E0
1.283560158E1,-1.374627775E0,-2.186042383E0,-2.849689665E0,3.845661712E0
1.284561558E1,-1.536523728E0,-2.642680104E0,-2.856472435E0,4.183789917E0
1.285562958E1,-1.743972414E0,-3.031145139E0,-1.993109702E0,4.025141850E0
1.286564358E1,-1.937031687E0,-3.229152911E0,-1.568032619E0,4.079000683E0
1.287565658E1,-1.995250660E0,-3.052845910E0,-1.585409520E0,3.976734426E0
1.288567058E1,-2.396608220E0,-2.702098340E0,-1.044632997E0,3.759830382E0
1.289568458E1,-3.543754748E0,-2.544036992E0,3.045092502E-1,4.372990717E0
1.290569858E1,-4.811249253E0,-2.091979979E0,1.468031198E0,5.447900072E0
1.291571258E1,-4.494628372E0,-2.295695218E0,2.346638499E0,5.565843421E0
1.292572558E1,-4.167488351E0,-2.654886752E0,2.672921319E0,5.617908080E0
1.293573958E1,-3.836318429E0,-2.723783324E0,2.269363013E0,5.223633139E0
1.294575358E1,-3.342031070E0,-2.437055749E0,2.151618801E0,4.662389501E0
1.295576758E1,-2.745678223E0,-1.762496978E0,2.478794052E0,4.097507102E0
1.296578058E1,-2.167270482E0,-5.465310609E-1,3.169981720E0,3.878729385E0
1.297579458E1,-2.187090788E0,1.021932498E0,3.618876851E0,4.350170319E0
1.298580858E1,-2.885500352E0,2.218106174E0,3.215858681E0,4.856732888E0
1.299582258E1,-3.676152667E0,3.215834708E0,2.215075124E0,5.363044760E0
1.300583658E1,-4.238648965E0,3.923702143E0,9.525826196E-1,5.853972771E0
1.301584958E1,-4.312485266E0,4.241045739E0,1.499319649E-1,6.050328728E0
1.302586358E1,-3.880570741E0,4.051223484E0,-2.602641003E-1,5.615957478E0
1.303587758E1,-2.958694628E0,3.593602261E0,-1.171445802E-2,4.654888650E0
1.304589158E1,-1.684274096E0,2.976991736E0,6.113063698E-1,3.474615735E0
1.305590458E1,-5.551562887E-1,2.097797374E0,1.046298576E0,2.409085519E0
1.306591858E1,1.983784854E-1,1.565681453E0,1.246499200E0,2.011087440E0
1.307593258E1,6.592186010E-1,1.558335012E0,1.325927631E0,2.149665382E0
1.308594658E1,1.028961436E0,1.792606046E0,9.227024706E-1,2.263532178E0
1.309596058E1,1.432236298E0,2.004293379E0,2.881183353E-1,2.480222759E0
1.310597358E1,1.832023880E0,2.127536312E0,-9.231116295E-2,2.809135741E0
1.311598758E1,2.231258317E0,2.154350474E0,-4.231980801E-2,3.101859218E0
1.312600158E1,2.511755099E0,2.167382163E0,1.464001004E-1,3.320827022E0
1.313601558E1,3.041616333E0,2.190101520E0,3.980188000E-1,3.769136976E0
1.314602858E1,3.611618702E0,2.153835334E0,7.388448143E-1,4.269506758E0
1.315604258E1,4.116815795E0,2.095930942E0,9.628074995E-1,4.718908464E0
1.316605658E1,4.338377906E0,1.961884108E0,9.342749874E-1,4.852152292E0
1.317607058E1,4.484931350E0,1.814998543E0,8.503884928E-1,4.912432138E0
1.318608458E1,4.545306190E0,1.669049701E0,6.377311067E-1,4.883875125E0
1.319609758E1,4.641524463E0,1.568783401E0,2.305346632E-1,4.904893162E0
1.320611158E1,4.699270980E0,1.576767190E0,-1.805514944E-1,4.960034410E0
1.321612558E1,4.505582546E0,1.571345066E0,-6.268096773E-1,4.812721659E0
1.322613958E1,4.193650548E0,1.768180472E0,-1.163627490E0,4.697573420E0
1.323615258E1,3.730221870E0,2.025243952E0,-1.635035863E0,4.548572363E0
1.324616658E1,3.267172676E0,1.981054205E0,-2.048445704E0,4.335334227E0
1.325618058E1,2.910719393E0,1.627747309E0,-2.298395316E0,4.050243168E0
1.326619458E1,2.461703517E0,1.113722674E0,-2.305150166E0,3.551630567E0
1.327620858E1,1.956721017E0,6.561844808E-1,-2.129003963E0,2.965129523E0
1.328622158E1,1.440800714E0,3.267172676E-1,-1.797849098E0,2.326996401E0
1.329623558E1,7.579611164E-1,-6.812590957E-3,-1.599619278E0,1.770122397E0
1.330624958E1,8.179202199E-2,-3.138416988E-1,-1.919126490E0,1.946338365E0
1.331626358E1,-5.311014283E-1,-6.258865482E-1,-1.957296821E0,2.122454604E0
1.332627658E1,-1.162469156E0,-9.550853741E-1,-2.045440235E0,2.539162926E0
1.333629058E1,-1.553757811E0,-1.402642955E0,-2.367536302E0,3.160189668E0
1.334630458E1,-2.033072205E0,-2.089465676E0,-2.059168474E0,3.569233000E0
1.335631858E1,-2.738999534E0,-2.894543071E0,-1.882114638E0,4.407136661E0
1.336633258E1,-3.334851859E0,-3.761043128E0,-2.157364275E0,5.470000269E0
1.337634558E1,-3.546436865E0,-4.494507335E0,-2.691165801E0,6.326150804E0
1.338635958E1,-3.542494673E0,-4.605762892E0,-3.474912554E0,6.770327730E0
1.339637358E1,-2.795325177E0,-4.124517748E0,-4.562966828E0,6.756193882E0
1.340638758E1,-2.331032281E0,-3.633297254E0,-5.462299293E0,6.962131426E0
1.341640058E1,-2.128978236E0,-3.333583598E0,-5.294547354E0,6.608900031E0
1.342641458E1,-2.032130803E0,-2.756685607E0,-2.948319329E0,4.519010733E0
1.343642858E1,-2.841521105E0,-2.113970772E0,-6.059165525E-1,3.593083562E0
1.344644258E1,-3.669430708E0,-2.589530668E0,-3.096042216E-1,4.501804702E0
1.345645658E1,-3.437924237E0,-1.982832928E0,2.147806270E0,4.512651244E0
1.346646958E1,-3.354244734E0,-4.932939166E-1,3.742053126E0,5.049480985E0
1.347648358E1,-3.503902465E0,3.057128996E-1,3.472875384E0,4.942838890E0
1.348649758E1,-3.207354491E0,9.006752783E-1,3.102200503E0,4.552140897E0
1.349651158E1,-2.630197468E0,1.235540641E0,2.924487247E0,4.122756973E0
1.350652458E1,-1.712036676E0,1.387825525E0,2.752946312E0,3.526449017E0
1.351653858E1,-8.704282165E-1,1.493408698E0,3.039229499E0,3.496402547E0
1.352655258E1,-7.271685094E-1,1.346138971E0,3.611377212E0,3.922105243E0
1.353656658E1,-1.466824332E0,1.001022854E0,4.098421040E0,4.466617892E0
1.354658058E1,-2.388826160E0,5.223148173E-1,3.640442551E0,4.385444694E0
1.355659358E1,-2.683637511E0,3.325896263E-3,2.269609619E0,3.514690481E0
1.356660758E1,-2.271904067E0,-3.371709198E-1,1.032510842E0,2.518195973E0
1.357662158E1,-1.868002968E0,-4.831805724E-1,5.753215814E-1,2.013428289E0
1.358663558E1,-1.685131883E0,-6.079928988E-1,7.809542687E-1,1.954281044E0
1.359664946E1,-1.563206327E0,-8.631852704E-1,9.670056541E-1,2.030714841E0
1.360666346E1,-1.175732396E0,-1.022172818E0,8.615077043E-1,1.780275108E0
1.361667746E1,-5.066887182E-1,-8.353507698E-1,6.501519084E-1,1.173559487E0
1.362669146E1,1.735476995E-1,-5.505925369E-1,6.696161199E-1,8.841135072E-1
1.363670546E1,9.261024803E-1,-1.981387496E-1,1.035900911E0,1.403572394E0
1.364671846E1,1.734981735E0,2.391727549E-1,1.282947088E0,2.171017839E0
1.365673246E1,2.619231600E0,7.947687542E-1,1.335224850E0,3.045464981E0
1.366674646E1,3.422800999E0,1.403849235E0,1.236586854E0,3.900705885E0
1.367676046E1,4.141962331E0,1.984733273E0,9.819511373E-1,4.696727174E0
1.368677346E1,4.662617124E0,2.490661853E0,7.218459351E-1,5.335209130E0
1.369678746E1,4.997701172E0,2.888334498E0,5.849743842E-1,5.801869372E0
1.370680146E1,5.160641438E0,3.198852639E0,4.294431257E-1,6.086813588E0
1.371681546E1,4.922274429E0,3.280051169E0,4.144822935E-1,5.929529222E0
1.372682846E1,4.489995623E0,3.076553446E0,4.561939180E-1,5.461991825E0
1.373684246E1,3.915567496E0,2.572172039E0,3.934544635E-1,4.701334303E0
1.374685646E1,3.686495807E0,2.107171045E0,3.648240106E-1,4.261867866E0
1.375687046E1,3.642438206E0,1.848729960E0,2.589872146E-1,4.092949172E0
1.376688446E1,3.136714278E0,2.136176158E0,1.965741078E-1,3.800114001E0
1.377689746E1,2.853637705E0,2.160179563E0,8.151091710E-3,3.579062773E0
1.378691146E1,3.145989132E0,1.249358196E0,-8.755856068E-1,3.496397242E0
1.379692546E1,3.357688159E0,7.329227543E-1,-1.218481389E0,3.646360163E0
1.380693946E1,3.357290549E0,2.970023024E-1,-9.544481738E-1,3.502938982E0
1.381695246E1,2.728533018E0,3.775430202E-2,-7.107582255E-1,2.819839547E0
1.382696646E1,2.036122112E0,-9.823790073E-2,-1.071812025E0,2.303090306E0
1.383698046E1,1.264307188E0,-4.040355849E-1,-1.541301634E0,2.034042317E0
1.384699446E1,5.464784360E-1,-8.835815281E-1,-2.029362877E0,2.279839618E0
1.385700846E1,-8.303046227E-3,-1.495013174E0,-2.639571140E0,3.033557175E0
1.386702146E1,-6.309759647E-1,-2.151109947E0,-2.791422161E0,3.580145577E0
1.387703546E1,-1.274564373E0,-2.660924002E0,-2.164634411E0,3.659326853E0
1.388704946E1,-1.761027573E0,-2.993729975E0,-1.628777003E0,3.836215818E0
1.389706346E1,-1.917520698E0,-3.136851688E0,-1.866977220E0,4.123387937E0
1.390707646E1,-1.891999941E0,-3.219643584E0,-2.629822662E0,4.567464922E0
1.391709046E1,-1.843290296E0,-3.367903245E0,-3.185731487E0,4.988925384E0
1.392710446E1,-2.028548214E0,-3.618371651E0,-3.187640311E0,5.231507623E0
1.393711846E1,-2.292213786E0,-3.827796696E0,-2.605037484E0,5.166477706E0
1.394713246E1,-2.326364449E0,-3.754619962E0,-2.345672393E0,5.001132030E0
1.395714546E1,-2.273092221E0,-3.374034051E0,-2.508276590E0,4.779383378E0
1.396715946E1,-2.678645158E0,-3.008417596E0,-1.691466026E0,4.368841223E0
1.397717346E1,-3.906035950E0,-2.308216445E0,-6.931125712E-1,4.589704243E0
1.398718746E1,-4.898421882E0,-1.777202725E0,-1.833571346E-1,5.214077704E0
1.399720046E1,-4.796901940E0,-2.789180923E0,1.660684236E0,5.792035097E0
1.400721446E1,-4.499886189E0,-3.270686268E0,3.186769953E0,6.411073787E0
1.401722846E1,-3.789162973E0,-2.931310948E0,2.632131143E0,5.466118757E0
1.402724246E1,-2.617159932E0,-2.507583110E0,2.368069714E0,4.329578887E0
1.403725546E1,-1.034726790E0,-1.828070578E0,2.829542499E0,3.524033530E0
1.404726946E1,-3.309436351E-1,-6.439181918E-1,3.709482965E0,3.779473270E0
1.405728346E1,-7.675359321E-1,7.306990582E-1,4.535020938E0,4.657193085E0
1.406729746E1,-1.767223867E0,1.781064227E0,4.102626357E0,4.809034519E0
1.407731146E1,-2.973107430E0,2.768540252E0,3.065426195E0,5.089304537E0
1.408732446E1,-3.750688294E0,3.678091019E0,1.620210979E0,5.497372085E0
1.409733846E1,-4.025470008E0,4.270437353E0,4.935530944E-1,5.889366573E0
1.410735246E1,-3.718184792E0,4.405138491E0,1.356602271E-1,5.766155302E0
1.411736646E1,-2.946179248E0,4.085634348E0,1.857848985E-1,5.040525391E0
1.412737946E1,-1.972771624E0,3.280385045E0,7.147120397E-1,3.894042529E0
1.413739346E1,-9.165048605E-1,2.254821426E0,1.071829566E0,2.659514889E0
1.414740746E1,6.605774939E-2,1.533060422E0,9.773632658E-1,1.819306691E0
1.415742146E1,7.194086695E-1,1.193055357E0,9.549906492E-1,1.689063959E0
1.416743446E1,9.900388598E-1,1.177136897E0,9.697560382E-1,1.818311027E0
1.417744846E1,1.149529853E0,1.290952950E0,7.495873189E-1,1.884107096E0
1.418746246E1,1.403045243E0,1.413876625E0,5.341349638E-1,2.062251979E0
1.419747646E1,1.773530089E0,1.482122988E0,3.355458324E-1,2.335527464E0
1.420749046E1,2.035972424E0,1.530409294E0,1.750222211E-1,2.553031354E0
1.421750346E1,2.167972147E0,1.554375277E0,1.324207234E-1,2.670902653E0
1.422751746E1,2.683466188E0,1.659861386E0,4.707476377E-2,3.155684813E0
1.423753146E1,3.135239611E0,1.830497172E0,-3.641762853E-2,3.630671227E0
1.424754546E1,3.473663004E0,1.894086812E0,-1.091558218E-1,3.958006381E0
1.425755846E1,3.754624640E0,1.780825076E0,-2.270448987E-1,4.161741645E0
1.426757246E1,3.917155015E0,1.426972927E0,-2.827945916E-1,4.178555723E0
1.427758646E1,4.175850454E0,1.821517311E0,-1.442668900E-1,4.558120804E0
1.428760046E1,4.222276177E0,1.989507232E0,-7.046899121E-1,4.720417673E0
1.429761346E1,4.200312865E0,2.009924247E0,-9.742057693E-1,4.757257669E0
1.430762746E1,4.375726996E0,2.052243471E0,-8.276010163E-1,4.903428744E0
1.431764146E1,4.379616564E0,2.062903529E0,-9.149876542E-1,4.926846316E0
1.432765546E1,4.049890319E0,2.006005736E0,-1.010219940E0,4.631005823E0
1.433766946E1,3.370998176E0,1.715218439E0,-1.283998271E0,3.994277727E0
1.434768246E1,2.917679334E0,1.416605228E0,-1.452090665E0,3.553616520E0
1.435769646E1,2.671434957E0,1.125539019E0,-1.494603431E0,3.261478534E0
1.436771046E1,2.321529386E0,7.721754053E-1,-1.433761982E0,2.835740991E0
1.437772446E1,1.867855618E0,3.032903981E-1,-1.459958678E0,2.390052095E0
1.438773746E1,1.163287182E0,-2.114423347E-1,-1.583388430E0,1.976123440E0
1.439775146E1,2.468630129E-1,-6.835693306E-1,-1.840085875E0,1.978414619E0
1.440776546E1,-5.593224299E-1,-1.009299003E0,-1.976193999E0,2.288420587E0
1.441777946E1,-1.425509076E0,-1.331282950E0,-1.690142362E0,2.580885821E0
1.442779246E1,-2.398343673E0,-1.779164759E0,-2.011918148E0,3.600735237E0
1.443780646E1,-3.051429715E0,-2.370107761E0,-2.445371075E0,4.572578463E0
1.444782046E1,-3.550686037E0,-2.953648774E0,-2.513949559E0,5.258455552E0
1.445783446E1,-3.861911107E0,-3.407956965E0,-2.941424292E0,5.931315616E0
1.446784846E1,-3.668853588E0,-3.658188851E0,-3.688692605E0,6.359975271E0
1.447786146E1,-3.398750231E0,-3.424210762E0,-4.410761466E0,6.536936529E0
1.448787546E1,-3.038708512E0,-2.879526837E0,-5.263607397E0,6.725398654E0
1.449788946E1,-2.604575554E0,-2.375193962E0,-5.430285788E0,6.474053128E0
1.450790346E1,-2.729062775E0,-1.866406678E0,-3.263989452E0,4.645953580E0
1.451791646E1,-3.493370460E0,-1.470671216E0,-1.242789142E0,3.988863979E0
1.452793046E1,-4.345668215E0,-1.768205615E0,-4.892515902E-1,4.717070112E0
1.453794446E1,-4.785276505E0,-1.200539208E0,1.979414792E0,5.315848807E0
1.454795846E1,-5.565930081E0,-8.072408652E-1,3.228430195E0,6.484903778E0
1.455797146E1,-6.405306074E0,-6.927237314E-1,3.101844993E0,7.150472322E0
1.456798546E1,-6.171575323E0,-3.768232280E-1,2.830319009E0,6.800076720E0
1.457799946E1,-4.365337663E0,-1.101095027E-1,2.538549964E0,5.050993263E0
1.458801346E1,-1.689949989E0,2.027340764E-1,2.756841727E0,3.239939564E0
1.459802725E1,5.778955257E-1,1.662883812E-1,3.184786577E0,3.241061648E0
1.460804025E1,1.538983651E0,9.460093260E-2,3.557921966E0,3.877657635E0
1.461805425E1,7.330467153E-1,2.149372154E-1,3.879096658E0,3.953599167E0
1.462806825E1,-3.480929339E-1,5.866254187E-1,3.630144435E0,3.693676582E0
1.463808225E1,-8.697288895E-1,8.493221068E-1,2.758362004E0,3.014355209E0
1.464809525E1,-9.896932894E-1,9.071674418E-1,1.528283393E0,2.034230986E0
1.465810925E1,-8.312852007E-1,7.760243350E-1,6.103383632E-1,1.290643937E0
1.466812325E1,-4.651384038E-1,4.509799558E-1,4.289847770E-1,7.770229045E-1
1.467813725E1,-2.375004512E-1,-1.266705716E-1,7.085517056E-1,7.579560789E-1
1.468815025E1,-3.118717718E-1,-6.319045025E-1,1.265959757E0,1.448869010E0
1.469816425E1,-2.715809476E-1,-7.547545034E-1,1.889789840E0,2.052977401E0
1.470817825E1,5.204021931E-5,-6.261134201E-1,1.993252812E0,2.089276140E0
1.471819225E1,5.049310452E-1,-3.200058335E-1,1.712186511E0,1.813543973E0
1.472820625E1,1.157884939E0,1.072969919E-1,1.372783709E0,1.799095687E0
1.473821925E1,2.002003609E0,6.483410257E-1,1.137361943E0,2.392061188E0
1.474823325E1,2.612096828E0,1.045220203E0,9.658430815E-1,2.974624005E0
1.475824725E1,2.753010632E0,1.744561229E0,1.269826959E0,3.497859621E0
1.476826125E1,3.297945403E0,2.384606810E0,1.348483558E0,4.287330338E0
1.477827425E1,3.608363557E0,2.111884485E0,9.171439612E-1,4.280361747E0
1.478828825E1,3.377869824E0,1.908270988E0,9.821685076E-1,4.002019202E0
1.479830225E1,3.315273626E0,1.856547103E0,1.034329472E0,3.937974583E0
1.480831625E1,3.409176401E0,1.991144745E0,7.429941447E-1,4.017360008E0
1.481832925E1,3.505215749E0,2.137766016E0,4.665576692E-1,4.132100803E0
1.482834325E1,3.600155236E0,2.329397984E0,1.295263517E-1,4.289987152E0
1.483835725E1,3.550853852E0,2.471368965E0,-2.967695832E-1,4.336392490E0
1.484837125E1,3.414388610E0,2.458155427E0,-6.401743658E-1,4.255631669E0
1.485838425E1,3.317342956E0,2.261851241E0,-7.834368503E-1,4.090783375E0
1.486839825E1,3.320758315E0,1.832756244E0,-9.982305166E-1,3.922103441E0
1.487841225E1,3.414531866E0,1.273285587E0,-1.353892233E0,3.887583855E0
1.488842625E1,3.441077056E0,8.282154125E-1,-1.426860806E0,3.816134672E0
1.489843925E1,3.325972277E0,4.270437938E-1,-1.043553747E0,3.511902962E0
1.490845325E1,2.913938286E0,1.090713295E-1,-3.407321665E-1,2.935818676E0
1.491846725E1,2.306569870E0,-1.902660584E-1,-3.343452528E-2,2.314645460E0
1.492848125E1,1.537997226E0,-5.924621093E-1,-4.957500395E-1,1.721108631E0
1.493849525E1,8.260449260E-1,-1.185793115E0,-1.436305375E0,2.037505500E0
1.494850825E1,1.748025119E-1,-1.854186290E0,-2.166438861E0,2.856924930E0
1.495852225E1,-4.335429740E-1,-2.619096822E0,-2.756190348E0,3.826775785E0
1.496853625E1,-8.176746368E-1,-3.292223025E0,-2.428314747E0,4.171814565E0
1.497855025E1,-1.205595295E0,-3.817467590E0,-1.918635324E0,4.439333320E0
1.498856325E1,-1.613323397E0,-4.022923838E0,-2.201078936E0,4.861221767E0
1.499857725E1,-1.895414715E0,-3.822339782E0,-3.104228318E0,5.276278215E0
1.500859125E1,-2.078647158E0,-3.599941812E0,-3.626148156E0,5.516276416E0
1.501860525E1,-2.202418680E0,-3.464616484E0,-3.214209766E0,5.213958175E0
1.502861825E1,-2.279886686E0,-3.470589123E0,-2.826988435E0,5.023418733E0
1.503863225E1,-2.420172499E0,-3.366554877E0,-2.570209129E0,4.878206805E0
1.504864625E1,-2.729006642E0,-3.083725056E0,-1.726976166E0,4.465342557E0
1.505866025E1,-3.532334551E0,-2.779535356E0,-4.345416784E-1,4.515753608E0
1.506867425E1,-4.113365353E0,-2.127028189E0,6.019180803E-1,4.669724705E0
1.507868725E1,-4.301622893E0,-2.195146497E0,8.563047056E-1,4.904679950E0
1.508870125E1,-4.723531662E0,-2.719375693E0,1.432788860E0,5.635569132E0
1.509871525E1,-4.607845670E0,-2.838619131E0,1.871459696E0,5.726461533E0
1.510872925E1,-4.027923499E0,-2.641503060E0,1.911418544E0,5.182202908E0
1.511874225E1,-2.783725471E0,-2.130287427E0,2.285453235E0,4.184560731E0
1.512875625E1,-1.440950988E0,-8.392163640E-1,3.464098713E0,3.844555078E0
1.513877025E1,-1.188812032E0,6.134717399E-1,4.317878737E0,4.520364854E0
1.514878425E1,-1.937853221E0,1.737658006E0,4.282297553E0,5.011267583E0
1.515879725E1,-3.046966535E0,2.758069058E0,3.439670216E0,5.359317231E0
1.516881125E1,-3.914869924E0,3.624400131E0,2.225595288E0,5.780636402E0
1.517882525E1,-4.234577549E0,4.274887084E0,1.160466777E0,6.128049424E0
1.518883925E1,-3.854850594E0,4.439780320E0,2.659266901E-1,5.885765829E0
1.519885225E1,-3.165593677E0,3.940514642E0,-1.057948422E-1,5.055673201E0
1.520886625E1,-2.250854090E0,3.164888502E0,5.635523057E-1,3.924341291E0
1.521888025E1,-1.098405308E0,2.394476910E0,1.164770036E0,2.880399821E0
1.522889425E1,-1.209730446E-1,1.699984396E0,1.227833426E0,2.100513353E0
1.523890825E1,4.129180902E-1,1.412598424E0,1.188693480E0,1.891805446E0
1.524892125E1,5.486898530E-1,1.534984156E0,1.213042309E0,2.031922380E0
1.525893525E1,7.891332078E-1,1.671680363E0,7.109723067E-1,1.980587811E0
1.526894925E1,1.145008201E0,1.718698409E0,-4.517412633E-3,2.065184837E0
1.527896325E1,1.553523338E0,1.751808268E0,-2.827713490E-1,2.358437323E0
1.528897625E1,2.040071906E0,1.774239357E0,-2.232779762E-1,2.712871492E0
1.529899025E1,2.592810956E0,1.830405371E0,6.687475160E-2,3.174511728E0
1.530900425E1,3.144151937E0,1.870573404E0,4.062202509E-1,3.680998662E0
1.531901825E1,3.480762109E0,1.203563388E0,2.741702409E-1,3.693161113E0
1.532903125E1,3.903378391E0,1.471241904E0,4.659133060E-1,4.197379040E0
1.533904525E1,4.068807816E0,1.859611044E0,5.833813834E-1,4.511505748E0
1.534905925E1,4.168421566E0,1.895521719E0,5.714388840E-1,4.614681283E0
1.535907325E1,4.087062823E0,1.925375848E0,8.326378079E-1,4.593956943E0
1.536908625E1,4.045209623E0,1.974590693E0,7.764795408E-1,4.567893363E0
1.537910025E1,4.288507004E0,2.030064397E0,3.758904509E-1,4.759595299E0
1.538911425E1,4.273931065E0,1.953975749E0,-2.021056469E-1,4.703759631E0
1.539912825E1,3.897371546E0,1.659454128E0,-8.687021184E-1,4.324111046E0
1.540914125E1,3.548838902E0,1.310037384E0,-1.692530219E0,4.144286916E0
1.541915525E1,3.256458823E0,9.474126577E-1,-2.533666078E0,4.233388549E0
1.542916925E1,3.085075178E0,5.967112809E-1,-3.081290860E0,4.400921105E0
1.543918325E1,3.102126828E0,2.312874922E-1,-3.167729080E0,4.439728853E0
1.544919725E1,2.990675390E0,-2.396206516E-1,-2.211487126E0,3.727228549E0
1.545921025E1,2.700796750E0,-7.304394418E-1,-9.681374558E-1,2.960597068E0
1.546922425E1,2.110491679E0,-1.007200438E0,-3.465702458E-1,2.364051350E0
1.547923825E1,1.312886440E0,-7.966892722E-1,-6.369534270E-1,1.662556546E0
1.548925225E1,7.536324227E-1,-1.341973999E-1,-1.243793840E0,1.460477280E0
1.549926525E1,2.833619177E-2,3.502227822E-1,-1.251626916E0,1.300011105E0
1.550927925E1,-7.448715395E-1,-1.063459423E-1,-1.516725640E0,1.693103582E0
1.551929325E1,-1.443512653E0,-1.252490257E0,-2.035613551E0,2.792164600E0
1.552930725E1,-2.527320387E0,-1.251336309E0,-1.424187605E0,3.159351394E0
1.553932025E1,-3.776903701E0,-1.613053256E0,-1.328130716E0,4.316349565E0
1.554933425E1,-4.805154115E0,-2.280390423E0,-2.026422751E0,5.691755065E0
1.555934825E1,-4.896470082E0,-2.957272293E0,-3.142550969E0,6.526599825E0
1.556936225E1,-4.328134754E0,-3.499811752E0,-4.072683935E0,6.896969420E0
1.557937525E1,-3.699115267E0,-3.510207517E0,-4.300884390E0,6.671028190E0
1.558938925E1,-3.139356635E0,-3.143974474E0,-4.341230178E0,6.211796442E0
1.559940313E1,-3.135169444E0,-2.578538195E0,-3.454185344E0,5.330060324E0
1.560941713E1,-3.999819442E0,-2.365765619E0,-2.653983357E0,5.351544655E0
1.561943012E1,-4.919975889E0,-2.600409705E0,-2.492713641E0,6.097697490E0
1.562944412E1,-5.406557786E0,-2.136406246E0,1.057129812E-1,5.814316295E0
1.563945812E1,-5.069762843E0,-1.228286585E0,3.255470059E0,6.148924176E0
1.564947212E1,-5.376667989E0,-9.040219322E-1,3.279633093E0,6.362531536E0
1.565948612E1,-5.219214166E0,-3.520500371E-1,2.992214377E0,6.026398810E0
1.566949912E1,-3.152041000E0,9.869866133E-2,2.386676724E0,3.954912095E0
1.567951312E1,-7.409141439E-1,3.890289983E-1,2.279427972E0,2.428186403E0
1.568952712E1,1.190165663E0,3.311465335E-1,2.429618530E0,2.725655615E0
1.569954112E1,1.998146785E0,4.494573408E-1,3.066834204E0,3.687827886E0
1.570955412E1,1.238114585E0,8.284858462E-1,4.040100911E0,4.306011135E0
1.571956812E1,1.207777476E-1,1.001262883E0,4.209335704E0,4.328466437E0
1.572958212E1,-6.658160144E-1,7.927757308E-1,3.024184613E0,3.196481957E0
1.573959612E1,-1.011709810E0,3.551464301E-1,1.566464249E0,1.898287642E0
1.574960913E1,-7.365854502E-1,4.017379215E-1,3.956705582E-1,9.276349894E-1
1.575962313E1,-6.500098211E-1,3.358821934E-1,3.903088076E-1,8.292590552E-1
1.576963713E1,-7.750203681E-1,-1.371315327E-1,6.591308928E-1,1.026603703E0
1.577965113E1,-5.148005605E-1,-6.291835007E-1,1.093990660E0,1.362977277E0
1.578966413E1,-2.064651847E-2,-8.230277628E-1,1.324611716E0,1.559614431E0
1.579967813E1,3.563655746E-1,-1.015391217E0,1.335148544E0,1.714828674E0
1.580969213E1,7.450586504E-1,-1.050828268E0,1.058252624E0,1.667108592E0
1.581970613E1,1.275066649E0,-8.450761512E-1,8.880939706E-1,1.768801731E0
1.582972013E1,1.982808954E0,-1.258028448E-2,1.042965663E0,2.240416699E0
1.583973313E1,2.526294200E0,4.944472799E-1,7.728395028E-1,2.687735366E0
1.584974713E1,3.161108277E0,6.382677349E-1,4.766931597E-1,3.259942885E0
1.585976113E1,3.728919110E0,8.010314146E-1,5.626051299E-1,3.855257915E0
1.586977513E1,4.062189937E0,1.022537977E0,6.563123886E-1,4.240013791E0
1.587978813E1,4.298193501E0,1.253003350E0,6.253315012E-1,4.520566807E0
1.588980213E1,4.321339704E0,1.442591132E0,6.078860410E-1,4.596147458E0
1.589981613E1,4.178032635E0,1.562944079E0,3.764497371E-1,4.476657827E0
1.590983013E1,3.987003515E0,1.676673593E0,8.217676878E-2,4.325989411E0
1.591984313E1,3.834192381E0,1.872305641E0,-1.588441448E-1,4.269870149E0
1.592985713E1,3.774694038E0,2.037944689E0,-2.654144009E-1,4.297903959E0
1.593987113E1,3.663154306E0,2.090991799E0,-3.354114195E-1,4.231246506E0
1.594988513E1,3.438431776E0,1.955420011E0,-4.333850992E-1,3.979233989E0
1.595989813E1,3.266664553E0,1.728362687E0,-5.330649233E-1,3.733964796E0
1.596991213E1,3.097719782E0,1.419368915E0,-5.976637924E-1,3.459433187E0
1.597992613E1,2.878639230E0,1.077486016E0,-5.799127420E-1,3.127912837E0
1.598994013E1,2.542474616E0,7.916861022E-1,-4.780331223E-1,2.705450003E0
1.599995313E1,1.976511503E0,2.957451510E-1,-5.329093143E-1,2.068346019E0
1.600996713E1,1.397119675E0,-1.916433701E-1,-6.526872611E-1,1.553921242E0
1.601998113E1,7.820031130E-1,-7.074873662E-1,-7.912836675E-1,1.318407025E0
1.602999513E1,1.430766892E-1,-1.290042538E0,-1.169294465E0,1.746977457E0
1.604000813E1,-3.094603801E-1,-1.810020223E0,-1.834416415E0,2.595577492E0
1.605002213E1,-4.430213106E-1,-2.143427875E0,-2.384278196E0,3.236561980E0
1.606003613E1,-6.490584791E-1,-2.356111281E0,-2.415834303E0,3.436392390E0
1.607005013E1,-1.164385874E0,-2.495153684E0,-1.955784878E0,3.377377808E0
1.608006413E1,-1.669505784E0,-2.658732466E0,-1.624996047E0,3.535070019E0
1.609007713E1,-1.931248791E0,-2.833931711E0,-1.957947032E0,3.948980554E0
1.610009113E1,-1.919320471E0,-2.949607471E0,-3.070149575E0,4.670095686E0
1.611010513E1,-1.812290697E0,-3.073958452E0,-4.119968029E0,5.450482061E0
1.612011913E1,-1.859199400E0,-3.220252571E0,-3.982352639E0,5.448465984E0
1.613013212E1,-2.147571797E0,-3.369940707E0,-2.866793940E0,4.918035430E0
1.614014612E1,-2.563805258E0,-3.350122155E0,-1.757573622E0,4.570063554E0
1.615016012E1,-3.033889237E0,-2.947979021E0,-6.416675985E-1,4.278644823E0
1.616017412E1,-3.661536967E0,-1.944581612E0,4.255075841E-1,4.167650094E0
1.617018712E1,-4.742978917E0,-2.415385676E0,9.136672068E-1,5.400437457E0
1.618020112E1,-5.381962059E0,-3.157936455E0,1.825489032E0,6.501575845E0
1.619021512E1,-5.273917208E0,-3.376634015E0,2.356126338E0,6.690828895E0
1.620022912E1,-3.962346976E0,-3.039061976E0,2.769664671E0,5.710265637E0
1.621024212E1,-2.459716049E0,-1.988255635E0,4.160510284E0,5.226204104E0
1.622025612E1,-1.978598959E0,-6.346839765E-1,5.525646858E0,5.903427038E0
1.623027012E1,-2.449248363E0,5.745810315E-1,5.663126008E0,6.196769892E0
1.624028412E1,-3.517219498E0,1.663381995E0,4.460678269E0,5.919064392E0
1.625029812E1,-4.449742806E0,2.728875957E0,2.533678064E0,5.802283995E0
1.626031113E1,-4.946322858E0,3.595642939E0,1.020106120E0,6.199626961E0
1.627032513E1,-4.771274763E0,3.843012613E0,1.521704252E-1,6.128373736E0
1.628033913E1,-4.194988976E0,4.348307063E0,2.065666339E-1,6.045525336E0
1.629035313E1,-2.841887140E0,4.197422879E0,9.424308300E-1,5.155856594E0
1.630036613E1,-1.777602090E0,3.299151976E0,1.587378863E0,4.069894913E0
1.631038013E1,-9.744180232E-1,2.582395896E0,1.754068801E0,3.270323594E0
1.632039413E1,2.726205826E-2,2.130033366E0,1.586450032E0,2.656051405E0
1.633040813E1,7.029557741E-1,1.928412892E0,1.282294246E0,2.420165621E0
1.634042113E1,1.258799111E0,1.938359005E0,9.050180054E-1,2.482109672E0
1.635043513E1,1.796647641E0,2.037296233E0,4.683444321E-1,2.756422536E0
1.636044913E1,2.333132601E0,2.034919340E0,1.244125231E-1,3.098367785E0
1.637046313E1,2.798837600E0,1.919068456E0,-1.333618328E-2,3.393595955E0
1.638047613E1,3.085420164E0,1.721312992E0,6.269486949E-2,3.533647782E0
1.639049013E1,3.363507308E0,1.651893678E0,2.306223714E-1,3.754346923E0
1.640050413E1,3.609309636E0,1.615533937E0,3.639400578E-1,3.971085282E0
1.641051813E1,3.817224931E0,1.639549621E0,3.894315791E-1,4.172647371E0
1.642053213E1,3.978549026E0,1.695704526E0,3.150139193E-1,4.336300262E0
1.643054513E1,4.355360559E0,1.758389309E0,2.819856293E-1,4.705381436E0
1.644055913E1,4.488438510E0,1.818819698E0,2.843281701E-1,4.851291360E0
1.645057313E1,4.335965345E0,1.448143063E0,5.031280562E-2,4.571678596E0
1.646058713E1,4.229595137E0,1.764548474E0,9.111950040E-2,4.583820361E0
1.647060013E1,4.174372863E0,2.025530173E0,-4.647413778E-1,4.663061851E0
1.648061413E1,4.306297157E0,2.268925495E0,-1.230628834E0,5.020624009E0
1.649062813E1,4.449511841E0,2.307779074E0,-1.632577693E0,5.271556677E0
1.650064213E1,4.184849904E0,2.153227808E0,-1.795848327E0,5.037303835E0
1.651065513E1,3.967243434E0,1.932957640E0,-1.987667406E0,4.840058617E0
1.652066913E1,3.403834970E0,1.702395787E0,-2.070182143E0,4.332424036E0
1.653068313E1,2.738633498E0,1.402214354E0,-1.942756112E0,3.638766252E0
1.654069713E1,2.165513978E0,1.060555111E0,-1.864555303E0,3.048080447E0
1.655071013E1,1.764250558E0,8.066678381E-1,-1.918185673E0,2.728136600E0
