"Time (s)","Linear Acceleration x (m/s^2)","Linear Acceleration y (m/s^2)","Linear Acceleration z (m/s^2)","Absolute acceleration (m/s^2)"
6.757791736E-3,1.208422132E0,-1.223063852E0,-2.971384841E0,3.432972051E0
1.676979172E-2,1.076683778E0,-1.107366166E0,-3.573522922E0,3.893016036E0
2.678079170E-2,9.653826132E-1,-9.035690653E-1,-3.954084860E0,4.169315019E0
3.679279168E-2,8.724601239E-1,-6.564815193E-1,-4.028250943E0,4.173602798E0
4.680479167E-2,8.174799246E-1,-4.868017530E-1,-3.738831310E0,3.857992864E0
5.681679177E-2,7.620965597E-1,-4.060446882E-1,-3.283918517E0,3.395553605E0
6.682879175E-2,8.390462101E-1,-1.162625277E-1,-3.055968908E0,3.171192439E0
7.683979173E-2,8.087257656E-1,2.947382605E-1,-2.815736638E0,2.944364247E0
8.685179171E-2,6.806691116E-1,7.093649071E-1,-2.637478421E0,2.814747135E0
9.686379170E-2,5.584120184E-1,9.515296823E-1,-2.356689863E0,2.602156765E0
1.068757917E-1,3.468603408E-1,1.014632249E0,-1.973955685E0,2.246395277E0
1.168877917E-1,1.416642943E-1,1.019440999E0,-1.587213240E0,1.891712080E0
1.268997918E-1,-1.179237217E-2,1.067070079E0,-1.278280864E0,1.665166532E0
1.369107917E-1,-1.382205766E-1,1.162436997E0,-1.074774370E0,1.589183641E0
1.469227917E-1,-2.166580510E-1,1.255052215E0,-9.194980502E-1,1.570851182E0
1.569347917E-1,-3.630720386E-1,1.360757595E0,-8.330364418E-1,1.636286115E0
1.669464167E-1,-6.437050608E-1,1.477139698E0,-8.941790217E-1,1.842784311E0
1.769584167E-1,-8.296507578E-1,1.702098456E0,-9.815223902E-1,2.132802320E0
1.869694167E-1,-9.142164065E-1,1.902615853E0,-8.152667534E-1,2.262829778E0
1.969814167E-1,-8.686247890E-1,2.119003763E0,-3.306612146E-1,2.313876144E0
2.069934168E-1,-6.939481384E-1,2.416676449E0,2.569178849E-1,2.527428708E0
2.170054168E-1,-5.924969003E-1,2.585664489E0,8.631496024E-1,2.789577148E0
2.270174167E-1,-5.513769409E-1,2.664905956E0,1.567225703E0,3.140372062E0
2.370284167E-1,-6.213384376E-1,2.596126328E0,2.233281453E0,3.480442416E0
2.470404167E-1,-8.420578185E-1,2.330490536E0,2.713354231E0,3.674580070E0
2.570524167E-1,-1.220259528E0,2.043681100E0,2.751718982E0,3.638354451E0
2.670644167E-1,-1.486126868E0,1.606705811E0,2.575686216E0,3.379975756E0
2.770764168E-1,-1.285943640E0,9.802392188E-1,2.435369412E0,2.923276269E0
2.870874167E-1,-1.055533376E0,4.665218550E-1,2.177211333E0,2.464151484E0
2.970994167E-1,-9.376016877E-1,3.827324241E-2,1.934974637E0,2.150508919E0
3.071114167E-1,-9.586124146E-1,-2.039318785E-1,1.889959263E0,2.128960307E0
3.171234167E-1,-9.694723020E-1,-3.826909089E-1,1.812666088E0,2.090953664E0
3.271354167E-1,-1.034308276E0,-5.703344911E-1,1.685434769E0,2.058097520E0
3.371464168E-1,-1.090624271E0,-7.697768775E-1,1.659809346E0,2.130019908E0
3.471584168E-1,-9.887980807E-1,-1.048534990E0,1.870106796E0,2.361026620E0
3.571704167E-1,-7.129113896E-1,-1.371195459E0,2.264498568E0,2.741600518E0
3.671824167E-1,-3.767157854E-1,-1.720843168E0,2.666163107E0,3.195565944E0
3.771944167E-1,-6.206453964E-2,-2.199189262E0,2.888336252E0,3.630808687E0
3.872064167E-1,1.701570453E-1,-2.787744262E0,3.092661940E0,4.167136831E0
3.972174167E-1,3.212946329E-1,-3.461579441E0,3.134479473E0,4.680889235E0
4.072294168E-1,3.119322174E-1,-4.147099695E0,2.550138561E0,4.878416164E0
4.172414168E-1,2.498610266E-1,-4.569487058E0,1.622206487E0,4.855326600E0
4.272534167E-1,9.444071889E-2,-4.287355102E0,1.164082403E0,4.443581963E0
4.372654167E-1,-9.963944909E-1,-2.658145697E0,7.494089788E-1,2.936009937E0
4.472764167E-1,-2.531028691E0,-9.622303793E-1,-2.035480088E-1,2.715405187E0
4.572884167E-1,-3.487532892E0,-7.926305737E-1,-8.035740763E-1,3.665635033E0
4.673004167E-1,-3.481407934E0,-1.974050264E0,-5.938274342E-1,4.045949414E0
4.773124168E-1,-1.879013860E0,-3.111188843E0,-3.680553281E-1,3.653170380E0
4.873244168E-1,-1.093947390E0,-2.768770047E0,-4.925384563E-1,3.017515965E0
4.973354167E-1,-1.472246456E0,-2.657911224E0,-9.477611518E-1,3.182805822E0
5.073474167E-1,-1.430695849E0,-2.623662035E0,-1.454155755E0,3.323411207E0
5.173594167E-1,-8.394502527E-1,-2.707096833E0,-5.738407740E0,6.400185418E0
5.273714167E-1,2.464192092E-2,-2.360675618E0,-7.581467071E0,7.940531439E0
5.373834167E-1,7.048227900E-1,-8.169598147E-1,-8.419164913E0,8.488023111E0
5.473944168E-1,1.863746487E0,-8.700291440E-2,-9.351715702E0,9.536021553E0
5.574064167E-1,2.554298270E0,-6.660095572E-2,-8.180662249E0,8.570420653E0
5.674184167E-1,3.240765773E0,9.343148947E-2,-7.401517839E0,8.080455344E0
5.774304167E-1,3.748727138E0,9.624283075E-2,-6.646865662E0,7.631712846E0
5.874424167E-1,3.731484576E0,-2.848880410E-1,-5.812751579E0,6.913264009E0
5.974544167E-1,3.760642009E0,-6.631764351E-1,-5.157804369E0,6.417567858E0
6.074654167E-1,4.176663509E0,-8.898836571E-1,-4.566731558E0,6.252315420E0
6.174774168E-1,5.692023532E0,-7.596568090E-1,-4.892972277E0,7.544361343E0
6.274894167E-1,7.869785088E0,7.173408017E-2,-6.286888847E0,1.007291589E1
6.375014167E-1,8.032963336E0,1.333328598E0,-5.920833267E0,1.006789609E1
6.475134167E-1,7.087052827E0,1.563234686E0,-3.496780556E0,8.055898132E0
6.575244167E-1,4.991535283E0,5.759895527E-1,1.418522823E-1,5.026659977E0
6.675364167E-1,2.190118769E0,-1.047545641E0,3.354492071E0,4.140844014E0
6.775484167E-1,9.754284221E-1,-1.301576902E0,3.642660400E0,3.989302925E0
6.875604168E-1,1.343842769E0,-4.635799746E-1,1.973668002E0,2.432320942E0
6.975724167E-1,2.479574947E0,5.324474573E-2,4.976161784E-1,2.529574823E0
7.075834167E-1,3.079963835E0,-3.733301014E-2,-6.699195904E-1,3.152199745E0
7.175954167E-1,2.878861424E0,-1.211954581E-1,-1.117897001E0,3.090667426E0
7.276074167E-1,2.685279409E0,-7.650987395E-1,1.134769142E-1,2.794454973E0
7.376194167E-1,2.041432261E0,-1.777273477E0,2.330559241E0,3.571785697E0
7.476314168E-1,8.471114208E-1,-2.234549130E0,4.549030282E0,5.138529369E0
7.576424167E-1,3.541749153E-1,-2.373323145E0,5.537175229E0,6.034766949E0
7.676544167E-1,8.826665850E-1,-2.073610512E0,5.065782643E0,5.544467030E0
7.776664167E-1,1.046931830E0,-1.493644487E0,4.242382413E0,4.617883568E0
7.876784167E-1,6.771770082E-1,-1.176228678E0,4.267165836E0,4.477810500E0
7.976904167E-1,1.023262739E-6,-1.102530737E0,4.911975728E0,5.034191055E0
8.077014167E-1,-9.984592889E-1,-1.787940991E0,5.336115210E0,5.715573416E0
8.177134168E-1,-2.047946644E0,-2.642082227E0,5.626097345E0,6.544284169E0
8.277254167E-1,-2.415041567E0,-2.894063015E0,5.310226663E0,6.512029923E0
8.377374167E-1,-1.870260285E0,-2.888985293E0,4.181173759E0,5.415378432E0
8.477494167E-1,-1.123817014E0,-2.663974787E0,2.874131026E0,4.076807023E0
8.577604167E-1,-8.447726807E-1,-2.437130009E0,2.439807449E0,3.550479397E0
8.677724167E-1,-9.124118096E-1,-2.514616141E0,3.041958395E0,4.050839484E0
8.777844167E-1,-1.084111058E0,-2.524924783E0,3.999473287E0,4.852455926E0
8.877964168E-1,-1.343797307E0,-2.321440216E0,4.503099234E0,5.241448138E0
8.978084167E-1,-1.523014905E0,-2.113133158E0,4.109643016E0,4.865600874E0
9.078194167E-1,-1.932740416E0,-2.188592207E0,3.266742906E0,4.381441610E0
9.178314167E-1,-2.380117464E0,-2.258934212E0,2.520850443E0,4.137925793E0
9.278434167E-1,-2.846244485E0,-2.161707002E0,2.098393205E0,4.144555329E0
9.378554167E-1,-3.148663648E0,-2.029976981E0,2.182590187E0,4.335733991E0
9.478674167E-1,-3.234581758E0,-2.030067905E0,2.183440372E0,4.398989282E0
9.578784168E-1,-3.105018861E0,-1.798724864E0,1.782555851E0,4.006751631E0
9.678904167E-1,-2.518680249E0,-9.635578434E-1,1.512561838E0,3.091930987E0
9.779024167E-1,-2.026710726E0,-1.056075413E0,1.413448609E0,2.687133904E0
9.879144167E-1,-1.306318263E0,-1.017061913E0,1.086906758E0,1.980466773E0
9.979264167E-1,5.222382188E-2,-1.624178168E-1,1.087452303E0,1.100754008E0
1.007938417E0,1.682220554E-1,2.769407979E-1,1.059949340E0,1.108371539E0
1.017949417E0,2.758146241E-1,5.399098201E-1,1.053092895E0,1.215146479E0
1.027961417E0,2.559779450E-1,9.456074761E-1,8.353905308E-1,1.287468658E0
1.037973417E0,6.003336310E-3,1.322950814E0,3.397279072E-1,1.365887970E0
1.047985417E0,-1.101328915E-1,1.551705292E0,-2.437236428E-1,1.574585591E0
1.057997417E0,-5.998161525E-2,1.656571304E0,-8.295737207E-1,1.853650139E0
1.068008417E0,1.464212966E-1,1.347097329E0,-1.249421931E0,1.843140139E0
1.078020417E0,3.261167586E-1,8.854957603E-1,-1.967130815E0,2.181755835E0
1.088032417E0,6.203758398E-1,8.271412790E-1,-3.030583221E0,3.202102987E0
1.098044417E0,1.089395333E0,9.718116269E-1,-4.006860659E0,4.264520181E0
1.108056417E0,1.325211786E0,9.548517779E-1,-4.579870836E0,4.862421729E0
1.118067417E0,1.364653302E0,8.037410143E-1,-4.670777498E0,4.931981416E0
1.128079417E0,1.274087241E0,7.794508034E-1,-4.496591282E0,4.738161565E0
1.138091417E0,1.366668253E0,9.563710307E-1,-4.421283823E0,4.725481806E0
1.148103417E0,1.587145705E0,1.134945581E0,-4.505997114E0,4.910309863E0
1.158115292E0,1.656129986E0,1.142333392E0,-4.503964621E0,4.932888547E0
1.168126292E0,1.466560038E0,1.089780811E0,-4.378237206E0,4.744194514E0
1.178138292E0,1.163592114E0,9.745516321E-1,-4.251376600E0,4.514188796E0
1.188150292E0,7.584291860E-1,7.288623016E-1,-4.224850121E0,4.353827469E0
1.198162292E0,5.073433140E-1,3.172000471E-1,-4.441640319E0,4.481761019E0
1.208174292E0,5.335408866E-1,-4.405029148E-2,-4.790743067E0,4.820562772E0
1.218185292E0,7.919603366E-1,-3.312830660E-1,-4.853815813E0,4.929145726E0
1.228197292E0,1.146692199E0,-4.935257587E-1,-4.856056466E0,5.013956031E0
1.238209292E0,1.256161139E0,-5.173718736E-1,-4.673805771E0,4.867245098E0
1.248221292E0,1.288903208E0,-3.942053922E-1,-3.998280455E0,4.219350183E0
1.258233292E0,1.540123858E0,-4.122146702E-1,-2.881192124E0,3.292896975E0
1.268244292E0,1.842725747E0,-6.324478550E-1,-1.759260544E0,2.625000215E0
1.278256292E0,1.591050476E0,-9.054296494E-1,-4.406093341E-1,1.882918227E0
1.288268292E0,1.179086359E0,-1.050192091E0,5.006508833E-1,1.656441782E0
1.298280292E0,1.074038790E0,-1.208035339E0,1.153205997E0,1.985646689E0
1.308292292E0,8.743607613E-1,-1.421007305E0,1.707362997E0,2.387227870E0
1.318303292E0,2.390242356E-1,-1.856762280E0,1.741741701E0,2.557022273E0
1.328315292E0,-6.683045894E-1,-2.350010004E0,1.566615254E0,2.902320002E0
1.338327292E0,-1.386291216E0,-2.580837028E0,1.447343164E0,3.267617685E0
1.348339292E0,-1.499173468E0,-2.809454682E0,1.393028963E0,3.475785722E0
1.358351292E0,-1.220702747E0,-3.288791879E0,1.061139833E0,3.665008181E0
1.368362292E0,-7.494370455E-1,-3.783135079E0,6.155574417E-1,3.905467689E0
1.378374292E0,-5.379122651E-1,-3.763124737E0,2.837343854E-1,3.811949973E0
1.388386292E0,-7.849021626E-1,-3.592709976E0,2.182824075E-1,3.683922310E0
1.398398292E0,-1.139455685E0,-3.504294228E0,2.626060563E-1,3.694238654E0
1.408410292E0,-1.440173893E0,-3.528159054E0,4.393504286E-1,3.836018242E0
1.418421292E0,-2.773715622E0,-2.797144831E0,3.790694359E-1,3.957424819E0
1.428433292E0,-4.010057332E0,-2.069247174E0,-5.580027133E-2,4.512810360E0
1.438445292E0,-4.854532097E0,-1.889611938E0,-3.051287627E-1,5.218258207E0
1.448457292E0,-5.516421706E0,-2.216074267E0,-2.045829660E-1,5.948423975E0
1.458469292E0,-5.421837730E0,-2.467483490E0,-1.958448869E-1,5.960130399E0
1.468480292E0,-5.319685119E0,-2.624923280E0,-3.190343186E-1,5.940627482E0
1.478492292E0,-6.088945395E0,-2.752162201E0,-3.413475859E-1,6.690752646E0
1.488504292E0,-7.334192414E0,-2.437407167E0,1.717675146E-1,7.730513317E0
1.498516292E0,-8.081414534E0,-1.998864239E0,1.274470818E0,8.421935346E0
1.508528292E0,-8.221571124E0,-1.832204559E0,2.377830764E0,8.752444483E0
1.518539292E0,-8.021946012E0,-1.356186826E0,3.276524421E0,8.770773786E0
1.528551292E0,-7.669543680E0,-5.102642906E-1,3.443867932E0,8.422736861E0
1.538563292E0,-6.794435352E0,-1.404448575E-1,2.797317324E0,7.349085706E0
1.548575292E0,-5.905246344E0,7.628160596E-2,1.671014073E0,6.137592468E0
1.558587292E0,-5.307741596E0,4.759838194E-1,8.343536733E-1,5.393962134E0
1.568598292E0,-4.945898350E0,8.084389597E-1,5.792149499E-2,5.011869805E0
1.578610292E0,-4.918879536E0,1.040193352E0,-6.363969183E-1,5.067778521E0
1.588622292E0,-4.760260363E0,1.167539277E0,-6.137086252E-1,4.939621945E0
1.598634292E0,-4.193117282E0,1.340528567E0,-2.770024860E-1,4.410893306E0
1.608646292E0,-3.161095414E0,1.591080004E0,2.739052159E-1,3.549518821E0
1.618657292E0,-2.017397574E0,2.243490107E0,2.997171281E-1,3.031991291E0
1.628669292E0,-7.835111099E-1,2.658939457E0,2.586854617E-1,2.784019911E0
1.638681292E0,-6.715994954E-2,2.564450791E0,2.712733658E-1,2.579633221E0
1.648693292E0,6.630877036E-1,2.227921895E0,9.784046549E-1,2.522022392E0
1.658705292E0,1.646832621E0,2.086640301E0,1.338681432E0,2.976271729E0
1.668716292E0,2.631359895E0,2.245464127E0,8.203105617E-1,3.555147460E0
1.678728292E0,4.158960772E0,2.130396770E0,1.462447107E0,4.896355444E0
1.688740292E0,6.230039293E0,2.277961197E0,3.548036664E0,7.522703037E0
1.698752292E0,7.287617587E0,2.795436859E0,5.184184667E0,9.370144502E0
1.708764292E0,6.349445284E0,2.351730840E0,5.305225539E0,8.601831862E0
1.718775292E0,2.717456637E0,1.694610220E0,3.509774823E0,4.751293895E0
1.728787292E0,-8.726829028E-1,6.058007777E-1,1.259243353E0,1.647502307E0
1.738799292E0,-2.395636997E0,2.086754322E-2,3.246572205E-1,2.417625775E0
1.748811292E0,-2.583802736E0,3.491588813E-1,6.022515178E-1,2.675940095E0
1.758823292E0,-2.473949341E0,8.733407146E-1,1.257406304E0,2.909333250E0
1.768834292E0,-2.862347425E0,9.273233789E-1,1.040149498E0,3.183531437E0
1.778846292E0,-4.094494927E0,6.362881601E-1,5.812373556E-2,4.144047502E0
1.788858292E0,-5.165528541E0,3.348384655E-1,-1.294993376E0,5.335898213E0
1.798870292E0,-5.815986843E0,-8.138096273E-2,-1.870181640E0,6.109820389E0
1.808882292E0,-5.421957598E0,-1.599961925E-1,-1.892245524E0,5.744894786E0
1.818893292E0,-5.224815214E0,-2.499398178E-1,-1.255061570E0,5.379251201E0
1.828905292E0,-5.801351262E0,-5.441301942E-1,-2.432406628E-1,5.831888215E0
1.838917292E0,-7.221077442E0,-1.148166867E0,5.097134829E-2,7.311965855E0
1.848929292E0,-8.168198909E0,-2.893568925E0,-2.352718434E0,8.979281629E0
1.858941292E0,-8.531184701E0,-3.261099173E0,-5.406916806E0,1.061370009E1
1.868952292E0,-7.148794162E0,-3.056315648E0,-7.426935686E0,1.075200897E1
1.878964292E0,-5.078354741E0,-3.167186458E0,-6.086480209E0,8.536158285E0
1.888976292E0,-4.016856767E0,-2.618239328E0,-3.794245665E0,6.114459553E0
1.898988292E0,-4.569000862E0,-3.050054449E0,-6.640450097E0,8.618246836E0
1.909000292E0,-3.311521468E0,-2.555343753E0,-4.198747566E0,5.926671684E0
1.919011292E0,-4.605138409E-1,-8.317722738E-1,-8.961925104E-1,1.306552383E0
1.929023292E0,2.350791192E-1,-4.672059792E-1,-2.747439989E-1,5.907858193E-1
1.939035292E0,1.824283921E0,-8.569445372E-1,3.330928962E0,3.893257442E0
1.949047292E0,3.244798598E0,-1.333213701E0,3.986717878E0,5.310376272E0
1.959059292E0,2.216693487E0,-2.303881320E0,5.644238332E-1,3.246563324E0
1.969070292E0,2.067245672E0,-3.511062965E0,1.058813810E-2,4.074454555E0
1.979082292E0,4.144295662E0,-3.320305156E0,3.417145572E0,6.314783981E0
1.989094292E0,6.196191516E0,-2.289805318E0,7.034931332E0,9.650194637E0
1.999106292E0,7.051481876E0,-1.467154115E0,1.136593941E1,1.345587294E1
2.009118292E0,8.818051440E0,5.899402052E-1,1.339430110E1,1.604722289E1
2.019129292E0,3.056915280E0,-1.962657695E0,7.756843779E0,8.565359401E0
2.029141292E0,-1.513664331E0,-3.505079509E0,3.897620637E0,5.456024991E0
2.039153292E0,-1.664106465E0,-3.894348536E0,3.097917710E0,5.247122543E0
2.049165292E0,-1.065463264E0,-2.871578717E0,1.720488242E0,3.513012394E0
2.059177292E0,-2.253701100E-1,-5.738328803E-1,3.184401246E0,3.243530045E0
2.069188292E0,1.717210293E-1,9.607489872E-1,3.457796292E0,3.592893253E0
2.079200292E0,8.412257597E-1,2.033652833E0,2.303759990E0,3.186018631E0
2.089212292E0,9.057959774E-1,3.517123019E0,2.075754540E0,4.183225740E0
2.099224292E0,7.949260443E-1,4.142465191E0,1.650008536E0,4.529288404E0
2.109236292E0,7.712696716E-1,4.679573464E0,1.229573557E0,4.899501592E0
2.119247292E0,7.169043070E-1,5.333267031E0,1.903148827E-1,5.384599221E0
2.129259292E0,-5.935280567E-1,5.933103649E0,3.247777462E-2,5.962805487E0
2.139271292E0,-1.806631762E0,6.170365534E0,4.488161936E-1,6.445057418E0
2.149283292E0,-4.256521565E-1,5.429143826E0,1.220001958E0,5.580787330E0
2.159295917E0,2.127891823E0,4.747456130E0,1.723513591E0,5.480580482E0
2.169306917E0,3.119112990E0,4.513753445E0,1.526060720E0,5.694883434E0
2.179318917E0,3.783428609E0,4.603125213E0,1.459915555E0,6.134692102E0
2.189330917E0,4.185118291E0,4.813074169E0,1.608915181E0,6.577956075E0
2.199342917E0,4.294488705E0,5.201709357E0,1.746357201E0,6.967795702E0
2.209354917E0,3.376300431E0,4.787149369E0,1.296576802E0,5.999776253E0
2.219365917E0,2.198795745E0,4.073927053E0,1.555414620E0,4.883738220E0
2.229377917E0,1.774289643E0,3.022856126E0,1.385579902E0,3.769030984E0
2.239389917E0,1.256071969E0,2.432190281E0,2.113771382E-1,2.745532125E0
2.249401917E0,3.936912757E-1,1.948190514E0,-8.426258755E-1,2.158809270E0
2.259413917E0,-1.629022586E-1,1.517017416E0,-1.466241073E0,2.116067549E0
2.269424917E0,-1.866057014E-1,1.366944534E0,-1.366035292E0,1.941497222E0
2.279436917E0,1.540419728E-1,1.569911914E0,-8.124524885E-1,1.774381975E0
2.289448917E0,-1.433684653E-1,1.623483519E0,-4.182004648E-1,1.682600631E0
2.299460917E0,-6.214894420E-1,1.626281412E0,8.481737137E-2,1.743053167E0
2.309472917E0,-1.822005846E0,1.380522353E0,8.032147649E-1,2.422952998E0
2.319483917E0,-2.661907504E0,1.451504627E0,6.138488853E-1,3.093449158E0
2.329495917E0,-3.251067690E0,8.372920454E-1,-1.702507469E-1,3.361470573E0
2.339507917E0,-3.961307926E0,2.184777045E-1,-4.469281277E-1,3.992422540E0
2.349519917E0,-4.002927237E0,-5.087136090E-2,-4.314245278E-1,4.026430365E0
2.359531917E0,-3.781199065E0,-6.195154220E-1,-4.840284187E-1,3.862065411E0
2.369542917E0,-3.205091034E0,-1.696271414E0,-3.673899150E-1,3.644848501E0
2.379554917E0,-2.855544482E0,-3.124390102E0,-3.231668383E-1,4.245042356E0
2.389566917E0,-2.266712324E0,-4.042752623E0,-2.015225333E-1,4.639228908E0
2.399578917E0,-1.466407426E0,-4.611726467E0,-1.878260154E-1,4.842896897E0
2.409590917E0,-1.151587488E0,-4.765141034E0,-1.787096214E0,5.217895715E0
2.419601917E0,-1.680486855E0,-4.254662150E0,-6.533175910E0,7.975498326E0
2.429613917E0,-2.785881339E0,-4.664705749E0,-9.566179293E0,1.100147267E1
2.439625917E0,-4.090255403E0,-4.664974136E0,-6.424828758E0,8.931438715E0
2.449637917E0,-4.514942769E0,-3.737309865E0,-2.474101954E0,6.361868728E0
2.459649917E0,-2.788509663E0,-2.874226336E0,-3.750369036E-1,4.022140705E0
2.469660917E0,-1.059382744E0,-2.330433526E0,2.338517009E0,3.467257421E0
2.479672917E0,7.837198555E-2,-2.151729167E0,2.720684885E0,3.469611912E0
2.489684917E0,1.037010713E0,-2.308257961E0,2.743595445E0,3.732393602E0
2.499696917E0,2.549509985E0,-3.877403305E0,2.425674729E0,5.236234854E0
2.509708917E0,3.495930955E0,-5.000862177E0,-1.203503746E0,6.219210322E0
2.519719917E0,3.683875085E0,-5.319561158E0,-1.946597148E0,6.757063490E0
2.529731917E0,2.911657872E0,-4.820392544E0,-8.772106943E-1,5.699424044E0
2.539743917E0,2.132433648E0,-3.274439011E0,-1.413623733E0,4.155424907E0
2.549755917E0,1.854102674E0,-1.908314842E0,-3.908325720E-1,2.689258701E0
2.559766917E0,1.431539310E0,-1.111893665E0,1.607455716E0,2.422710506E0
2.569778917E0,1.089477779E0,-6.763176137E-1,1.593263354E0,2.045203037E0
2.579790917E0,2.373478974E0,-9.352861172E-1,6.281456199E-1,2.627304603E0
2.589802917E0,1.011411310E0,-8.173910469E-1,1.692225140E-1,1.311379892E0
2.599814917E0,-4.028974244E-1,-1.164413940E0,-8.575479698E-1,1.501191087E0
2.609825917E0,3.225704223E-2,-7.566846693E-1,-1.128307384E0,1.358929637E0
2.619837917E0,4.838401383E-1,6.938423038E-1,-1.447348719E0,1.676405898E0
2.629849917E0,1.005861718E0,1.899858014E0,-3.757043633E-1,2.182285966E0
2.639861917E0,1.150045577E0,3.206081552E0,6.458971819E-1,3.466806444E0
2.649873917E0,1.351971861E0,4.112145039E0,7.501632696E-1,4.393211771E0
2.659884917E0,1.236020990E0,4.850170074E0,1.230957009E0,5.154333399E0
2.669896917E0,7.773466828E-1,4.908011901E0,2.824018049E0,5.715586289E0
2.679908917E0,7.438210872E-1,5.416704460E0,1.042982474E0,5.566126971E0
2.689920917E0,1.057637351E0,5.706239283E0,1.000753005E0,5.889080582E0
2.699932917E0,2.119241452E0,4.938289368E0,2.881697031E0,6.097709734E0
2.709943917E0,3.388538069E0,4.547724014E0,3.180148273E0,6.502101737E0
2.719955917E0,3.998740338E0,3.839518025E0,2.191494619E0,5.961079736E0
2.729967917E0,3.291362315E0,2.601625049E0,9.319157821E-1,4.297672139E0
2.739979917E0,2.064841881E0,1.501343370E0,-3.039663363E-1,2.570991918E0
2.749991917E0,1.180693466E0,7.178188115E-1,-6.343615025E-1,1.520432643E0
2.760002917E0,1.202895344E0,5.382017022E-1,-2.296879864E-1,1.337675166E0
2.770014917E0,1.423328065E0,3.820541471E-1,-1.391321576E-1,1.480265486E0
2.780026917E0,1.173298784E0,-2.294388950E-1,1.601362333E-1,1.206198929E0
2.790038917E0,4.205375969E-1,-4.103885847E-1,2.464984390E-1,6.372065139E-1
2.800050917E0,-8.342558786E-1,-3.099948156E-1,-4.189731744E-1,9.836758498E-1
2.810061917E0,-9.796445569E-1,8.900573194E-2,-5.442870457E-1,1.124221449E0
2.820073917E0,-1.880661313E0,4.773491442E-1,-8.876855426E-1,2.133713852E0
2.830085917E0,-2.928462185E0,8.112163872E-1,-1.179627518E0,3.259675425E0
2.840097917E0,-2.837347070E0,1.508869906E0,-1.203331254E0,3.431505922E0
2.850109917E0,-2.695243065E0,1.992297231E0,-1.514457944E0,3.677929621E0
2.860120917E0,-2.884308105E0,2.100201749E0,-1.628706691E0,3.922086959E0
2.870132917E0,-2.484018247E0,2.359214106E0,-1.899367433E0,3.917120689E0
2.880144917E0,-2.276324269E0,1.539153221E0,-1.877247416E0,3.327867587E0
2.890156917E0,-2.246728003E0,6.428709555E-1,-2.436197670E0,3.375815290E0
2.900168917E0,-1.897782837E0,5.517602259E-1,-3.414935324E0,3.945605443E0
2.910179917E0,-2.072439753E0,9.707372010E-1,-3.559272673E0,4.231519728E0
2.920191917E0,-2.299105314E0,1.289143821E0,-2.920164986E0,3.933845521E0
2.930203917E0,-3.113057029E0,1.255400709E0,-2.545694093E0,4.212803510E0
2.940215917E0,-3.932161310E0,9.447644538E-1,-2.252679591E0,4.629150870E0
2.950226917E0,-3.391604641E0,4.542970812E-1,-1.565329890E0,3.762927789E0
2.960238917E0,-2.424734204E0,-4.818807364E-2,-2.177320676E0,3.259199806E0
2.970250917E0,-1.846877270E0,-1.170460546E-1,-3.453964319E0,3.918485032E0
2.980262917E0,-4.101763308E-1,2.811288661E-1,-4.235751085E0,4.264840597E0
2.990274917E0,8.887630382E-1,3.763618827E-1,-3.683106176E0,3.807468858E0
3.000285917E0,1.392183748E0,3.004901665E-1,-2.669575542E0,3.025740158E0
3.010297917E0,2.948785060E0,6.485959643E-1,-1.715185256E0,3.472444458E0
3.020309917E0,3.711340041E0,4.671480918E-1,-4.067266198E-1,3.762671761E0
3.030321917E0,4.324051058E0,-1.529707628E-1,1.025718570E0,4.446674734E0
3.040333917E0,4.322498623E0,-5.002480102E-1,1.986270067E0,4.783253202E0
3.050344917E0,3.670759487E0,-1.698122057E0,2.364095947E0,4.684767164E0
3.060356917E0,1.805482784E0,-3.928638362E0,2.822213598E0,5.163221578E0
3.070368917E0,-6.097815621E-1,-6.708106475E0,4.176308291E0,7.925407055E0
3.080380917E0,-2.468333675E0,-8.779469756E0,4.109762299E0,1.000309485E1
3.090392917E0,-2.929916387E0,-8.918570924E0,1.769924111E0,9.552902633E0
3.100403917E0,-2.618286398E0,-8.762384192E0,1.255323526E0,9.230960814E0
3.110415917E0,-3.039632665E0,-8.458179290E0,2.513735551E0,9.332686111E0
3.120427917E0,-2.898263070E0,-6.923993279E0,2.555396962E0,7.929165491E0
3.130439917E0,-1.584013644E0,-4.851920146E0,2.658857596E0,5.754976285E0
3.140451917E0,-1.681312774E0,-3.021735215E0,3.065166578E0,4.620924421E0
3.150462917E0,-2.189168012E0,-1.620870983E0,3.164309920E0,4.175228928E0
3.160474167E0,-2.681763479E0,-9.841308331E-1,2.510324577E0,3.802906564E0
3.170486167E0,-2.744592395E0,-1.544559556E-1,1.163944409E0,2.985198594E0
3.180498167E0,-1.103349713E0,9.595567399E-1,1.139400136E-1,1.466666988E0
3.190510167E0,-3.350407791E-1,1.868609324E0,-2.946546453E-1,1.921138852E0
3.200521167E0,7.621389520E-1,2.971785375E0,1.818776429E-2,3.068011553E0
3.210533167E0,1.059338013E0,4.016056575E0,3.139302841E-1,4.165268258E0
3.220545167E0,1.824920975E0,4.904693021E0,7.856169847E-1,5.291837511E0
3.230557167E0,2.815410948E0,6.106568903E0,1.480284915E0,6.885344291E0
3.240568167E0,3.231082784E0,6.463584688E0,1.840210859E0,7.456822311E0
3.250580167E0,4.567674129E0,7.220614343E0,2.551643050E0,8.916938975E0
3.260592167E0,1.955077657E0,6.952265736E0,2.053024951E0,7.508078246E0
3.270604167E0,-2.331220854E0,5.396126354E0,8.012240803E-1,5.932514671E0
3.280616167E0,-3.800498970E0,4.764137651E0,1.135366142E0,6.199181902E0
3.290627167E0,-3.908304085E0,4.916332489E0,1.036907217E0,6.365559091E0
3.300639167E0,-3.561525898E0,4.973110707E0,5.069965741E-1,6.137861382E0
3.310651167E0,-3.071991448E0,4.867439826E0,-1.240179822E-1,5.757124488E0
3.320663167E0,-1.440348432E0,4.979449673E0,-2.173009524E-1,5.188134767E0
3.330675167E0,-3.082979536E-1,5.104508752E0,-1.034480622E-1,5.114856668E0
3.340686167E0,5.438001189E-1,4.806152235E0,2.555937830E-1,4.843567492E0
3.350698167E0,1.144745515E0,4.847217230E0,3.125979960E-1,4.990358171E0
3.360710167E0,1.042666432E0,4.049814305E0,7.268343410E-1,4.244577406E0
3.370722167E0,7.693219641E-1,3.173472800E0,4.141275868E-1,3.291547896E0
3.380734167E0,5.139607541E-1,2.525578501E0,-3.568125942E-1,2.601925758E0
3.390745167E0,-2.187750354E-2,2.256722356E0,-1.169943652E0,2.542054792E0
3.400757167E0,-1.057612792E0,1.834522980E0,-1.619271770E0,2.665719499E0
3.410769167E0,-2.408653923E0,1.338129455E0,-2.365040272E0,3.631200854E0
3.420781167E0,-2.624307860E0,6.876202816E-1,-1.827209283E0,3.270857252E0
3.430793167E0,-7.329322560E-1,2.835581503E0,1.555106033E0,3.316031804E0
3.440804167E0,-1.027273929E-1,2.643246700E0,2.923400250E-1,2.661347163E0
3.450816167E0,-3.354563992E0,-2.442538683E0,-4.276719017E0,5.958978129E0
3.460828167E0,-3.936920943E0,-5.908186909E0,-3.305272549E0,7.831401259E0
3.470840167E0,-2.337672964E0,-6.520670469E0,-2.436539733E0,7.343063674E0
3.480852167E0,-8.351168811E-1,-5.533334777E0,-2.784220730E0,6.250367912E0
3.490863167E0,-3.050335262E-1,-4.822803935E0,-4.588385259E0,6.663764892E0
3.500875167E0,1.132605964E0,-3.811165461E0,-6.406386055E0,7.539864768E0
3.510887167E0,8.607516593E-1,-3.498787905E0,-6.217200562E0,7.185818885E0
3.520899167E0,-1.152481235E0,-3.423637151E0,-5.662029655E0,6.716255218E0
3.530910167E0,-1.547225887E0,-2.775003179E0,-2.647436814E0,4.135634446E0
3.540922167E0,1.186782464E0,-1.468972600E0,3.857127500E0,4.294620549E0
3.550934167E0,3.668957668E0,-4.385201240E-1,8.375968607E0,9.154802039E0
3.560946167E0,4.330157598E0,-6.979996741E-2,7.375400666E0,8.552875063E0
3.570958167E0,5.732052986E0,-1.082794996E0,7.294597993E0,9.340237487E0
3.580969167E0,5.814739047E0,-3.593131560E0,4.710851390E0,8.301439961E0
3.590981167E0,5.954968727E0,-6.482603926E0,-3.274383755E-1,8.808690146E0
3.600993167E0,3.183815939E0,-8.663382645E0,2.935492292E-1,9.234557593E0
3.611005167E0,1.224826203E0,-8.367155684E0,2.626440632E-1,8.460406336E0
3.621017167E0,5.549729785E-1,-7.056826816E0,-5.407247758E-1,7.099238198E0
3.631028167E0,7.964227123E-1,-6.354915939E0,2.212962086E-1,6.408448934E0
3.641040167E0,1.020692742E0,-5.426021413E0,1.052868361E0,5.620680905E0
3.651052167E0,1.321264915E0,-3.911810660E0,8.769632109E-1,4.221026900E0
3.661064167E0,9.294750081E-1,-2.735083653E0,6.115661323E-1,2.952730857E0
3.671076167E0,2.774052861E-1,-2.039860237E0,1.941487558E-1,2.067771075E0
3.681087167E0,7.396289259E-2,-1.238193523E0,-3.423193932E-2,1.240872892E0
3.691099167E0,1.900710538E-2,-3.453944439E-1,1.829147927E-1,3.913009242E-1
3.701111167E0,1.627009682E-1,-1.149229306E-1,2.270320348E-1,3.020305115E-1
3.711123167E0,5.805929925E-1,2.378898758E-1,2.509999180E-1,6.757816028E-1
3.721135167E0,3.677106348E-1,3.552774078E-1,-3.921037567E-1,6.443434669E-1
3.731146167E0,2.482382780E-1,8.812870806E-1,-4.661376929E-1,1.027411072E0
3.741158167E0,5.435549013E-1,2.317553864E0,2.036293582E-1,2.389136404E0
3.751170167E0,1.755334870E-1,2.945675803E0,3.056773046E-1,2.966691180E0
3.761182167E0,-7.263523842E-1,2.558826354E0,8.500674807E-2,2.661279062E0
3.771194167E0,-5.351433892E-1,2.622524167E0,-1.921920582E-1,2.683458448E0
3.781205167E0,4.061796127E-1,3.343345524E0,-6.143365431E-1,3.423499753E0
3.791217167E0,1.388589464E0,4.108740790E0,-7.245448637E-1,4.397146443E0
3.801229167E0,2.112627228E0,4.569273927E0,-1.368727934E-1,5.035890407E0
3.811241167E0,2.188244152E0,4.747181895E0,9.880977670E-2,5.228184368E0
3.821252167E0,1.802600837E0,4.459353290E0,-4.057219219E-1,4.826987862E0
3.831264167E0,1.200294648E0,3.912714055E0,-1.323916043E0,4.301487209E0
3.841276167E0,1.616126552E-1,3.559840438E0,-1.989103482E0,4.081067906E0
3.851288167E0,-1.381170955E0,2.609870208E0,-1.842537174E0,3.480517052E0
3.861300167E0,-1.667994425E0,2.411665385E0,-1.503914391E0,3.295465646E0
3.871311167E0,-1.356627122E0,3.373387349E0,-1.414533268E0,3.901420730E0
3.881323167E0,-1.634633574E0,3.951098102E0,-1.488667191E0,4.527618926E0
3.891335167E0,-1.902726073E0,3.871497032E0,-1.192456602E0,4.475579127E0
3.901347167E0,-1.974286783E0,3.354879157E0,-6.080052145E-1,3.939884872E0
3.911359167E0,-1.758198105E0,2.554322244E0,-3.738300383E-1,3.123391042E0
3.921370167E0,-1.447724549E0,1.445265648E0,-6.781851413E-1,2.155141352E0
3.931382167E0,-1.263222968E0,6.955350727E-1,-1.616032412E0,2.165885976E0
3.941394167E0,-1.559344241E0,2.191583204E-1,-2.989519395E0,3.378877187E0
3.951406167E0,-1.688431174E0,-2.397615695E-1,-3.609447046E0,3.992041260E0
3.961418167E0,-1.303218800E0,-8.556330067E-1,-3.694980116E0,4.010407105E0
3.971429167E0,-1.061728794E0,-1.736570424E0,-4.111343971E0,4.587602218E0
3.981441167E0,-1.367419474E0,-2.324203902E0,-4.951173123E0,5.637896336E0
3.991453167E0,-1.966023498E0,-2.840283834E0,-5.142928467E0,6.195334848E0
4.001465167E0,-2.851198246E0,-2.587760131E0,-3.974737226E0,5.533928980E0
4.011477167E0,-3.588337428E0,-1.815460473E0,-2.757207471E0,4.875885075E0
4.021488167E0,-3.558811913E0,-1.573673428E0,-2.005874466E0,4.377798837E0
4.031500167E0,-2.497851589E0,-1.586929066E0,-2.479166812E0,3.860553652E0
4.041512167E0,-3.636737171E-1,-9.316199130E-1,-2.800098259E0,2.973335584E0
4.051524167E0,7.781679243E-2,-8.439754128E-2,-3.214805013E0,3.216854002E0
4.061535167E0,3.953546624E-1,-2.451755065E-1,-2.933886647E0,2.970539882E0
4.071547167E0,4.441086588E0,-1.043277758E0,-1.953937157E0,4.962816637E0
4.081559167E0,3.637821829E0,-2.664976122E0,-3.142679242E-1,4.520465653E0
4.091571167E0,1.903622451E0,-3.386068790E0,1.266707470E0,4.085803238E0
4.101583167E0,-5.607529512E-1,-4.995571616E0,2.503037485E0,5.615636767E0
4.111594167E0,-1.267262224E0,-7.226216560E0,4.388896680E0,8.549068568E0
4.121606167E0,-1.446511105E0,-7.894562665E0,4.792301935E0,9.347869911E0
4.131618167E0,-1.721591319E-1,-7.636251388E0,4.494655269E0,8.862499649E0
4.141630167E0,1.339734077E0,-6.610065626E0,3.728395200E0,7.706411989E0
4.151642167E0,2.293163520E0,-4.720781717E0,3.909200463E0,6.544175059E0
4.161653333E0,3.100334072E0,-3.300273179E0,4.135184823E0,6.132179705E0
4.171665333E0,3.586975611E0,-2.911014093E0,4.308432268E0,6.316881010E0
4.181677333E0,3.937722597E0,-2.972166029E0,5.701177933E0,7.539420400E0
4.191689333E0,3.812643637E0,-2.536725633E0,7.167685347E0,8.505700540E0
4.201701333E0,1.799664804E0,-2.499958926E0,7.331972226E0,7.952760826E0
4.211712333E0,-7.960158923E-1,-2.198782881E0,5.978305550E0,6.419378841E0
4.221724333E0,-3.238730358E0,-1.734373625E0,3.948634086E0,5.393434652E0
4.231736333E0,-4.277433254E0,-1.426909484E0,2.317988020E0,5.070066507E0
4.241748333E0,-3.971322452E0,-8.658165175E-1,9.282256043E-1,4.169249696E0
4.251760333E0,-2.596321917E0,1.163683623E-1,-4.365124825E-1,2.635331524E0
4.261771333E0,-1.157227420E0,1.257543129E0,-1.493185042E0,2.269403356E0
4.271783333E0,2.852964873E-1,2.504461282E0,-1.754924688E0,3.071397248E0
4.281795333E0,1.035780458E0,3.522432291E0,-1.278753611E0,3.887876181E0
4.291807333E0,1.621345485E0,3.924647053E0,-3.884495392E-1,4.264095298E0
4.301819333E0,2.391763802E0,4.750062819E0,2.112354894E-1,5.322429078E0
4.311830333E0,2.589257019E0,5.398747661E0,9.452912879E-1,6.061707996E0
4.321842333E0,2.398790985E0,5.569192827E0,1.521460423E0,6.251795643E0
4.331854333E0,2.572543922E0,5.808080238E0,1.645846488E0,6.562056762E0
4.341866333E0,2.511850116E0,6.108432410E0,1.649252783E0,6.807523210E0
4.351878333E0,2.719233314E0,6.625682369E0,1.528276230E0,7.323218207E0
4.361889333E0,2.776263839E0,6.436548332E0,7.304034814E-1,7.047714848E0
4.371901333E0,2.242261753E0,4.751675481E0,-3.308176276E-1,5.264560565E0
4.381913333E0,2.111093796E0,3.505226859E0,-6.050530650E-1,4.136353655E0
4.391925333E0,1.739200501E0,3.578486624E0,-1.483365521E-1,3.981505825E0
4.401936333E0,1.289288101E0,3.997750697E0,5.124616742E-2,4.200821421E0
4.411948333E0,8.022148910E-1,4.266457738E0,-5.771421120E-2,4.341605843E0
4.421960333E0,1.447064690E0,4.578817753E0,9.916547379E-1,4.903360822E0
4.431972333E0,1.164964456E0,4.436426357E0,8.242404753E-1,4.660299708E0
4.441984333E0,3.946658604E-1,3.903036913E0,2.217729029E-1,3.929203674E0
4.451995333E0,-1.035013304E0,3.360239884E0,-5.692439854E-1,3.561811805E0
4.462007333E0,-2.198463623E0,2.656849077E0,-7.909679179E-1,3.538038944E0
4.472019333E0,-3.154517296E0,2.325949881E0,-1.407868026E0,4.164506525E0
4.482031333E0,-3.365462910E0,2.560320318E0,-1.698998116E0,4.557211354E0
4.492043333E0,-3.409193358E0,2.371976239E0,-7.453021869E-1,4.219519639E0
4.502054333E0,-3.369960880E0,1.940725374E0,-2.182034701E-3,3.888837368E0
4.512066333E0,-2.803168340E0,8.524310714E-1,-2.257012086E-1,2.938593628E0
4.522078333E0,-2.014300596E0,8.124706149E-2,-1.278487563E0,2.387161164E0
4.532090333E0,-1.835179038E0,-2.543082726E-1,-3.078775388E0,3.593245426E0
4.542102333E0,-1.519177670E0,-8.184189874E-1,-5.285539134E0,5.560093018E0
4.552113333E0,-9.193574247E-1,-1.521996320E0,-4.668660513E0,4.995806428E0
4.562125333E0,-4.297632973E-1,-2.371832398E0,-1.971051081E0,3.113732130E0
4.572137333E0,-1.366914420E0,-3.186517353E0,-1.578576318E0,3.809757350E0
4.582149333E0,-2.100273962E0,-4.520624508E0,-2.237851345E0,5.463988955E0
4.592161333E0,-1.772954431E0,-5.627908813E0,-8.625207344E-1,5.963276535E0
4.602172333E0,-1.621696025E0,-5.639042496E0,7.416795444E-1,5.914286670E0
4.612184333E0,-1.646132416E0,-5.620661189E0,2.107461067E0,6.224385615E0
4.622196333E0,-2.218442389E0,-5.525699483E0,1.431798341E0,6.124123440E0
4.632208333E0,-2.466294751E0,-6.096624543E0,1.719373763E0,6.797623611E0
4.642220333E0,-8.634592125E-1,-5.742242929E0,2.321233225E0,6.253562133E0
4.652231333E0,2.236682779E-1,-5.017270634E0,1.938668908E0,5.383443995E0
4.662243333E0,3.533706673E-1,-4.597617136E0,3.554083854E-2,4.611314054E0
4.672255333E0,6.468184108E-1,-4.990709072E0,-5.749590540E-1,5.065187954E0
4.682267333E0,1.090739973E0,-6.173567469E0,-1.039842519E-1,6.270044793E0
4.692278333E0,9.718253678E-1,-7.341322508E0,1.953168833E-1,7.407942319E0
4.702290333E0,7.383276281E-1,-7.321239077E0,-3.955793417E-1,7.368999411E0
4.712302333E0,1.732188082E0,-7.775817994E0,7.295202595E-1,7.999751298E0
4.722314333E0,2.976761940E0,-7.107808104E0,1.991020784E0,7.959033324E0
4.732326333E0,4.092756842E0,-5.643182325E0,3.145071996E0,7.647721437E0
4.742337333E0,4.753294575E0,-3.282272526E0,4.857623228E0,7.547425102E0
4.752349333E0,4.351789080E0,-9.404252350E-1,5.468061140E0,7.051394220E0
4.762361333E0,3.521468962E0,2.978706139E-1,4.966346648E0,6.095413815E0
4.772373333E0,3.404982778E0,3.246514463E-1,4.465338207E0,5.624815694E0
4.782385333E0,3.126297756E0,9.192068589E-1,2.889346358E0,4.355112087E0
4.792396333E0,2.563959040E0,1.631524025E0,1.235157356E0,3.280452758E0
4.802408333E0,2.055427279E0,2.449799171E0,-2.222210920E-1,3.205570073E0
4.812420333E0,1.605562680E0,3.679394948E0,-1.437236252E0,4.263968427E0
4.822432333E0,1.511858710E0,5.170065395E0,-2.184002582E0,5.812500342E0
4.832444333E0,1.628276189E0,5.899223127E0,-2.765658452E0,6.715726582E0
4.842455333E0,1.530804859E0,5.837780001E0,-2.746363517E0,6.630652413E0
4.852467333E0,1.507264553E0,5.162053540E0,-1.896844944E0,5.702338461E0
4.862479333E0,1.097546059E0,3.529172376E0,-3.730406642E-2,3.696086661E0
4.872491333E0,1.393691160E0,1.649153380E0,4.387693323E0,4.890187585E0
4.882503333E0,2.554141857E0,-2.757991290E-1,8.896220527E0,9.259721672E0
4.892514333E0,2.134281953E0,-8.843393272E-1,5.702850237E0,6.153024973E0
4.902526333E0,1.569829468E0,-5.659391391E-1,1.993320494E0,2.599611175E0
4.912538333E0,1.151322609E0,-4.855171198E-1,2.102120805E-1,1.267067379E0
4.922550333E0,5.151209879E-1,-7.263066298E-1,-9.346914554E-1,1.290937283E0
4.932561333E0,-9.607092261E-2,-7.948003292E-1,-1.491054025E0,1.692388634E0
4.942573333E0,-5.056224784E-1,-5.802349967E-1,-1.442019274E0,1.634547745E0
4.952585333E0,-9.211361477E-1,-3.842942154E-1,-1.387170930E0,1.708922770E0
4.962597333E0,-1.118668833E0,-2.417858756E-1,-1.208752646E0,1.664621076E0
4.972609333E0,-9.860060352E-1,-6.966939908E-1,-1.165259009E0,1.677921028E0
4.982620333E0,-5.145152164E-1,-7.384436953E-1,-1.285124445E0,1.568939080E0
4.992632333E0,8.009190749E-2,-6.929833478E-1,-1.532323673E0,1.683643808E0
5.002644333E0,-1.339409264E-1,-6.877834189E-1,-2.475692396E0,2.572943653E0
5.012656333E0,-8.596390072E-1,-1.359565347E-1,-3.444179589E0,3.552440913E0
5.022668333E0,-1.736657255E0,8.299695772E-1,-4.171445746E0,4.594103562E0
5.032679333E0,-2.723401794E0,1.878227409E0,-4.397821870E0,5.503225666E0
5.042691333E0,-3.277447404E0,2.826898388E0,-5.440270493E0,6.951946419E0
5.052703333E0,-2.284316829E0,3.849496298E0,-6.418549433E0,7.825247724E0
5.062715333E0,-4.321049244E-1,4.676858602E0,-6.804540510E0,8.268100907E0
5.072727333E0,1.458753713E0,2.570749996E0,-6.924105545E0,7.528609137E0
5.082738333E0,2.035958098E0,-1.541138935E-1,-6.988112676E0,7.280288129E0
5.092750333E0,1.838723035E0,-1.052687098E0,-6.979401494E0,7.293908263E0
5.102762333E0,1.094712791E0,-1.404417000E0,-6.512455716E0,6.751508177E0
5.112774333E0,3.009181827E-2,-1.382058417E0,-5.902468917E0,6.062188573E0
5.122786333E0,-7.055668482E-1,-5.677073371E-1,-4.899314167E0,4.982308251E0
5.132797333E0,-1.029963868E0,8.209677887E-1,-4.325940878E0,4.522010412E0
5.142809333E0,-1.647281102E0,1.820672681E0,-4.498305101E0,5.124756855E0
5.152821333E0,-2.060074646E0,2.680618594E0,-4.429965184E0,5.572630898E0
5.162833667E0,-2.324339850E0,3.181003429E0,-4.062491069E0,5.659078745E0
5.172844667E0,-2.475017043E0,3.371322697E0,-3.320998635E0,5.340464214E0
5.182856667E0,-2.397326258E0,3.099769816E0,-2.737993813E0,4.780413812E0
5.192868667E0,-2.169936812E0,2.328328528E0,-2.215760418E0,3.878057985E0
5.202880667E0,-1.316743848E0,1.214545628E0,-1.624286488E0,2.418107119E0
5.212892667E0,-1.876014823E-1,-2.402422106E-1,-8.296380401E-1,8.838607998E-1
5.222903667E0,1.261291194E0,-1.717833021E0,2.976177219E-1,2.151832260E0
5.232915667E0,2.861173596E0,-3.900103950E0,1.105022017E0,4.961672987E0
5.242927667E0,4.641889329E0,-6.953021781E0,5.200947757E-1,8.376284797E0
5.252939667E0,5.912055427E0,-1.067723915E1,1.916916096E-1,1.220625171E1
5.262951667E0,6.910074567E0,-1.400276002E1,1.136076871E0,1.565621568E1
5.272962667E0,7.464057319E0,-1.613681364E1,2.272329452E0,1.792407284E1
5.282974667E0,7.256913857E0,-1.629537726E1,2.909921833E0,1.807400796E1
5.292986667E0,4.489831609E0,-1.333461856E1,3.675781661E0,1.454242108E1
5.302998667E0,8.842577586E-1,-9.018425580E0,4.838083002E0,1.027233950E1
5.313009667E0,-1.608246260E0,-6.144749467E0,6.594854679E0,9.156227950E0
5.323021667E0,-4.210136772E0,-4.080701053E0,7.918567239E0,9.852973147E0
5.333033667E0,-7.147470353E0,-2.389172900E0,9.066511327E0,1.178966103E1
5.343045667E0,-8.313981689E0,-3.737429148E-1,8.269918242E0,1.173258382E1
5.353057667E0,-7.921676788E0,1.581688791E0,5.635708998E0,9.849665907E0
5.363068667E0,-7.344034447E0,3.298199172E0,4.758796805E0,9.351957376E0
5.373080667E0,-6.850395545E0,4.773994303E0,5.041206211E0,9.753599376E0
5.383092667E0,-6.603384597E0,5.836348017E0,5.060564588E0,1.016252726E1
5.393104667E0,-6.258800578E0,6.795148712E0,4.818066229E0,1.041923188E1
5.403116667E0,-5.362611283E0,7.485238273E0,3.729159431E0,9.934436161E0
5.413127667E0,-3.565996679E0,7.398707083E0,2.219326488E0,8.507796946E0
5.423139667E0,-1.057596420E0,6.096142148E0,1.160105127E0,6.295022095E0
5.433151667E0,7.207476819E-1,4.878722028E0,2.974411359E-1,4.940635291E0
5.443163667E0,1.930440998E0,3.971339993E0,5.188146740E-2,4.415975031E0
5.453175667E0,2.789494919E0,3.160126530E0,3.637792593E-1,4.230841162E0
5.463186667E0,3.666085516E0,3.065827314E0,6.310817993E-1,4.820554363E0
5.473198667E0,4.551086455E0,3.200109206E0,8.288454500E-1,5.624950812E0
5.483210667E0,5.291182866E0,3.197970879E0,1.172552387E0,6.292734935E0
5.493222667E0,5.885190395E0,2.853127243E0,1.892292886E0,6.808566179E0
5.503234667E0,6.078553138E0,2.337081810E0,2.699665899E0,7.049748620E0
5.513245667E0,6.078243821E0,1.818130896E0,3.295291936E0,7.149097625E0
5.523257667E0,5.684016355E0,1.238262520E0,3.786039683E0,6.940852431E0
5.533269667E0,4.541894925E0,9.565407461E-1,3.531434664E0,5.832221746E0
5.543281667E0,2.029694560E0,1.072837772E0,2.154741068E0,3.148579039E0
5.553292667E0,-7.740310923E-1,8.299988133E-1,5.143813151E-1,1.246037840E0
5.563304667E0,-3.221523171E0,3.291900551E-1,-1.057179514E0,3.406494703E0
5.573316667E0,-5.267224485E0,-5.093930554E-1,-2.598962812E0,5.895569757E0
5.583328667E0,-6.830614414E0,-1.559507963E0,-3.857322797E0,7.998018350E0
5.593340667E0,-7.422302352E0,-2.563783039E0,-4.608844374E0,9.105218402E0
5.603351667E0,-6.224956309E0,-3.590237188E0,-4.205345272E0,8.326152351E0
5.613363667E0,-5.342501539E0,-4.682767798E0,-4.210147297E0,8.258085566E0
5.623375667E0,-4.797200148E0,-5.650284938E0,-3.959879743E0,8.403540725E0
5.633387667E0,-4.081820210E0,-5.678243399E0,-3.265610008E0,7.718025204E0
5.643399667E0,-2.245960848E0,-4.559580413E0,-2.303696840E0,5.580424070E0
5.653410667E0,-5.243128840E-1,-2.892022921E0,-1.559946212E0,3.327481444E0
5.663422667E0,3.188155597E-1,-1.402804922E0,-2.192285163E0,2.622140203E0
5.673434667E0,4.865260568E-1,-5.959096277E-1,-4.031994331E0,4.104728270E0
5.683446667E0,2.143814376E-1,-7.190823948E-1,-5.374833133E0,5.426957721E0
5.693457667E0,5.163822323E-2,-1.916836574E0,-4.582817248E0,4.967810673E0
5.703469667E0,-2.989171924E-1,-2.997407289E0,-3.157789690E0,4.364107890E0
5.713481667E0,-3.440200558E-1,-3.171839672E0,-2.175826128E0,3.861752975E0
5.723493667E0,-7.434437225E-1,-3.543080564E0,-1.086431672E0,3.779743672E0
5.733505667E0,-1.511252208E0,-4.445230510E0,4.844739765E-2,4.695349260E0
5.743516667E0,-1.301160434E0,-5.620473493E0,1.168463137E0,5.886259157E0
5.753528667E0,8.394365117E-2,-5.959871618E0,2.742547916E0,6.561149694E0
5.763540667E0,1.840584058E0,-4.835786508E0,4.108130049E0,6.606762696E0
5.773552667E0,3.219792103E0,-2.413299682E0,4.923204721E0,6.358381969E0
5.783564667E0,4.040356142E0,-2.968134373E-1,5.232785554E0,6.617750420E0
5.793575667E0,4.349464227E0,9.880449593E-1,4.811943902E0,6.561164227E0
5.803587667E0,4.271690412E0,1.762011659E0,4.408263535E0,6.386298729E0
5.813599667E0,4.148509166E0,2.393062468E0,4.021336319E0,6.253640705E0
5.823611667E0,4.201406295E0,2.660745077E0,2.850954710E0,5.732305119E0
5.833623667E0,4.532250527E0,2.012595255E0,1.988612316E0,5.342884375E0
5.843634667E0,4.377210435E0,6.097499871E-1,1.090116002E0,4.551935757E0
5.853646667E0,3.723210474E0,-9.132479614E-1,1.036073989E-1,3.834977518E0
5.863658667E0,3.016337357E0,-1.917295581E0,-1.042303612E0,3.722997477E0
5.873670667E0,2.542416143E0,-2.369176008E0,-1.512434369E0,3.790030675E0
5.883681667E0,2.057793355E0,-1.588818301E0,-1.337009128E0,2.923431288E0
5.893693667E0,1.377904701E0,-3.103310305E-1,-1.369491873E0,1.967342040E0
5.903705667E0,1.035140919E0,9.457467860E-1,-1.207260875E0,1.850252017E0
5.913717667E0,8.582167451E-1,2.094481418E0,-5.622527620E-1,2.332277119E0
5.923729667E0,5.074995808E-1,2.835035373E0,-1.831494123E-2,2.880159167E0
5.933740667E0,2.791973115E-1,3.314981266E0,7.568849364E-1,3.411733685E0
5.943752667E0,9.706763899E-1,2.727392811E0,6.030593691E0,6.689465185E0
5.953764667E0,2.060969563E0,1.488084224E0,9.508772500E0,9.842700069E0
5.963776667E0,2.569684926E0,1.180298486E0,7.548722663E0,8.060992431E0
5.973788667E0,1.937725167E0,1.866477429E0,3.862294099E0,4.706998250E0
5.983799667E0,1.324239102E0,1.919630958E0,8.488844427E-1,2.481772957E0
5.993811667E0,9.075203944E-2,1.836775328E0,-1.296275962E0,2.249957979E0
6.003823667E0,-9.215801706E-1,1.797035896E0,-2.877009611E0,3.515086389E0
6.013835667E0,-1.139989828E0,1.293674244E0,-3.515080587E0,3.915221755E0
6.023846667E0,-5.786758366E-1,6.023930204E-1,-2.538717195E0,2.672606980E0
6.033858667E0,-9.637205422E-2,8.310764551E-2,-1.286847035E0,1.293124025E0
6.043870667E0,3.968113500E-1,1.420598584E-1,1.020361058E-1,4.336491874E-1
6.053882667E0,7.835000002E-1,4.422746211E-1,4.213831043E-1,9.935002826E-1
6.063894667E0,6.699923882E-1,7.599936086E-1,-3.287784842E-1,1.065164484E0
6.073905667E0,4.433852997E-1,1.219515177E0,-1.802005445E0,2.220592582E0
6.083917667E0,1.233198246E-1,1.067321509E0,-3.433665125E0,3.597838125E0
6.093929667E0,-8.462605047E-1,3.744170988E-1,-4.596718419E0,4.688940736E0
6.103941667E0,-2.358782289E0,-2.632001334E-1,-5.016789408E0,5.549892266E0
6.113953667E0,-3.479447362E0,1.984761339E-1,-5.568139744E0,6.568875621E0
6.123964667E0,-3.276545763E0,1.166768614E0,-6.472388840E0,7.347715185E0
6.133976667E0,-1.130518508E0,2.275247505E0,-7.484414985E0,7.903878224E0
6.143988667E0,5.288674630E-1,2.286312776E0,-8.060611310E0,8.395259471E0
6.154000667E0,1.415478762E0,1.077909063E0,-7.958592600E0,8.155039193E0
6.164011167E0,1.484116596E0,-5.012344354E-1,-7.466313175E0,7.628870851E0
6.174023167E0,7.853836808E-1,-1.567926199E0,-6.691240182E0,6.917218752E0
6.184035167E0,1.736707833E-1,-1.828992684E0,-6.025873234E0,6.299724122E0
6.194047167E0,-3.490507078E-1,-1.315113060E0,-5.724386702E0,5.883873033E0
6.204059167E0,-7.961235541E-1,-1.309758765E-1,-5.829041337E0,5.884614711E0
6.214070167E0,-6.582497174E-1,1.251535115E0,-6.291519842E0,6.448476933E0
6.224082167E0,-7.034045479E-1,2.477997369E0,-6.920907118E0,7.384727771E0
6.234094167E0,-1.032283823E0,3.436895712E0,-6.884912828E0,7.764012280E0
6.244106167E0,-1.483511701E0,4.028553244E0,-6.011303726E0,7.386868125E0
6.254118167E0,-1.998063755E0,4.100778052E0,-4.706924400E0,6.554675943E0
6.264129167E0,-2.177399321E0,3.745381361E0,-3.511330183E0,5.576592956E0
6.274141167E0,-1.655126311E0,2.379356010E0,-2.442168116E0,3.790113882E0
6.284153167E0,3.872011587E-1,2.550368357E-1,-1.434224936E0,1.507305441E0
6.294165167E0,2.838693976E0,-2.188695849E0,-6.909549487E-1,3.650478291E0
6.304176167E0,4.606143838E0,-5.520225905E0,1.309893250E0,7.307891311E0
6.314188167E0,5.589850456E0,-8.607670959E0,4.306233423E0,1.113023242E1
6.324200167E0,6.271994235E0,-1.188399570E1,3.853906268E0,1.397926532E1
6.334212167E0,6.392770813E0,-1.496952930E1,1.888652995E0,1.638662065E1
6.344224167E0,6.786336958E0,-1.678656443E1,1.946273504E0,1.821074120E1
6.354235167E0,6.744422362E0,-1.692226544E1,2.281682658E0,1.835909519E1
6.364247167E0,3.877120299E0,-1.469004174E1,2.635949667E0,1.542003952E1
6.374259167E0,8.995722011E-1,-1.134740841E1,4.604782314E0,1.227912570E1
6.384271167E0,-1.181848291E0,-8.622323497E0,6.882155281E0,1.109528229E1
6.394283167E0,-3.493159375E0,-6.113009611E0,1.002433554E1,1.224983069E1
6.404294167E0,-6.066855783E0,-3.413719103E0,1.294562787E1,1.469862232E1
6.414306167E0,-8.781906291E0,-9.842805219E-1,1.321304910E1,1.589576525E1
6.424318167E0,-9.168609560E0,8.676484501E-1,1.059887359E1,1.404109456E1
6.434330167E0,-8.504003334E0,2.588789241E0,7.815929309E0,1.183675012E1
6.444341167E0,-8.396119866E0,4.076736056E0,5.873289557E0,1.102769858E1
6.454353167E0,-8.479246808E0,5.060553478E0,4.543300011E0,1.086960914E1
6.464365167E0,-7.974551990E0,5.701360366E0,3.392043183E0,1.037328041E1
6.474377167E0,-6.605096662E0,6.190470600E0,2.169983590E0,9.309030935E0
6.484389167E0,-4.193111142E0,6.410807135E0,1.212641190E0,7.755715816E0
6.494400167E0,-1.750333015E0,5.725826871E0,5.263809711E-2,5.987614699E0
6.504412167E0,5.238724059E-1,4.808727933E0,-1.025284706E0,4.944645120E0
6.514424167E0,2.302227581E0,3.916472645E0,-1.007289608E0,4.653347416E0
6.524436167E0,3.618800837E0,3.478722015E0,-7.206895021E-1,5.071155658E0
6.534447167E0,4.919442623E0,3.231331583E0,-3.641096270E-1,5.897032757E0
6.544459167E0,5.822152147E0,3.026570277E0,-2.719627708E-2,6.561884097E0
6.554471167E0,6.200320820E0,2.907231529E0,5.294320482E-1,6.868498506E0
6.564483167E0,6.491315693E0,2.985242157E0,1.251840632E0,7.253685624E0
6.574495167E0,6.653986986E0,3.200574644E0,1.963149153E0,7.640233993E0
6.584506167E0,6.318585434E0,3.318681384E0,2.721360238E0,7.638322431E0
6.594518167E0,5.047087925E0,3.111161946E0,3.356384230E0,6.813056603E0
6.604530167E0,2.908023827E0,2.827273779E0,3.508811787E0,5.363006597E0
6.614542167E0,5.572697648E-1,2.742952251E0,3.095417733E0,4.173241856E0
6.624554167E0,-1.630341718E0,2.640359344E0,2.235942813E0,3.824781281E0
6.634565167E0,-3.484492925E0,2.335311273E0,9.336193684E-1,4.297326472E0
6.644577167E0,-4.975754818E0,1.482108369E0,-4.050980240E-1,5.207579633E0
6.654589167E0,-6.136282699E0,-5.977900922E-2,-1.674061934E0,6.360819306E0
6.664601167E0,-6.897668529E0,-1.810396784E0,-3.079461559E0,7.767782898E0
6.674612167E0,-6.510749499E0,-3.626565939E0,-3.864851671E0,8.395172302E0
6.684624167E0,-5.422588513E0,-5.568866553E0,-3.979498321E0,8.732304836E0
6.694636167E0,-4.806690471E0,-7.135305805E0,-4.397152656E0,9.661874233E0
6.704648167E0,-4.068718061E0,-7.698182757E0,-5.086594638E0,1.008414247E1
6.714660167E0,-2.115931343E0,-6.472944326E0,-4.803597294E0,8.333709898E0
6.724671167E0,-2.012342656E-1,-4.575207682E0,-4.223400596E0,6.229777938E0
6.734683167E0,7.666049092E-1,-2.878071465E0,-4.560551636E0,5.446981702E0
6.744695167E0,1.308847768E0,-1.265667835E0,-5.342128487E0,5.643875824E0
6.754707167E0,1.184656124E0,-2.725825757E-1,-5.985945522E0,6.108130252E0
6.764719167E0,1.132851255E0,-2.583598083E-1,-4.522365224E0,4.669249295E0
6.774730167E0,4.059943291E-1,-1.085500503E0,-1.907025239E0,2.231566265E0
6.784742167E0,-6.447045692E-1,-1.359410981E0,-3.373934063E-1,1.541906776E0
6.794754167E0,-8.938740163E-1,-1.912696161E0,6.569080737E-1,2.211096013E0
6.804766167E0,-1.320353919E0,-3.577748120E0,1.760173587E0,4.200217511E0
6.814777167E0,-2.096441404E0,-5.588530154E0,2.988614539E0,6.675219300E0
6.824789167E0,-1.741947670E0,-6.419324189E0,3.891743601E0,7.706346280E0
6.834801167E0,-1.020328168E-1,-5.643597477E0,4.520468680E0,7.231544805E0
6.844813167E0,1.416181159E0,-3.633404258E0,4.978548617E0,6.324013118E0
6.854825167E0,2.196988955E0,-1.609692276E0,5.121955674E0,5.801060215E0
6.864836167E0,2.686514341E0,-4.892055434E-1,4.992860262E0,5.690811451E0
6.874848167E0,3.092550551E0,2.618640447E-1,4.632952445E0,5.576440625E0
6.884860167E0,3.589907113E0,8.717461789E-1,3.846519481E0,5.333206034E0
6.894872167E0,4.059366902E0,8.885610169E-1,2.560712081E0,4.881111214E0
6.904883167E0,4.235750793E0,5.620495713E-1,1.063027022E0,4.403125134E0
6.914895167E0,4.133749624E0,-3.008567870E-2,-4.927662054E-1,4.163124985E0
6.924907167E0,4.080340864E0,-6.572083282E-1,-1.863521954E0,4.533631925E0
6.934919167E0,3.339314454E0,-1.089761953E0,-2.660997677E0,4.406757399E0
6.944931167E0,2.606644884E0,-9.506052375E-1,-3.181948046E0,4.221734387E0
6.954942167E0,2.662119465E0,-1.928329861E-1,-2.854483797E0,3.907958848E0
6.964954167E0,2.594935250E0,6.263812226E-1,-2.257986232E0,3.496361567E0
6.974966167E0,2.274841269E0,1.413775468E0,-1.708966596E0,3.177141908E0
6.984978167E0,1.808217673E0,1.991658130E0,-1.013364280E0,2.874588740E0
6.994990167E0,1.349413850E0,2.361074690E0,-3.978357822E-1,2.748429505E0
7.005001167E0,9.438002479E-1,2.568802289E0,6.945240891E-1,2.823449631E0
7.015013167E0,1.609443185E0,2.079465768E0,5.649047667E0,6.231069313E0
7.025025167E0,3.802842534E0,6.364197224E-1,1.363948069E1,1.417399291E1
7.035037167E0,3.698663278E0,2.261995375E-2,1.095307687E1,1.156073157E1
7.045048167E0,3.189647075E0,6.026421118E-1,5.878058546E0,6.714804409E0
7.055060167E0,2.865566025E0,1.055450492E0,1.953951191E0,3.625378551E0
7.065072167E0,2.317423179E0,8.619784051E-1,-4.644171497E-1,2.515778259E0
7.075084167E0,1.025208108E0,9.089309621E-1,-2.320650111E0,2.694925620E0
7.085096167E0,-3.155859004E-2,1.348736889E0,-3.601213582E0,3.845624319E0
7.095107167E0,-7.860900244E-1,1.838259351E0,-3.493580375E0,4.025200468E0
7.105119167E0,-9.111002791E-1,2.091701651E0,-2.744467850E0,3.568952689E0
7.115131167E0,-5.870788702E-1,2.136050443E0,-1.885880245E0,2.909281250E0
7.125143167E0,-4.426740225E-1,1.780060844E0,-1.368893995E0,2.288765534E0
7.135154167E0,-3.622610663E-1,1.415709143E0,-1.408001343E0,2.029269139E0
7.145166167E0,-2.977934672E-1,1.306871409E0,-2.281145006E0,2.645792201E0
7.155178167E0,-4.131128025E-1,1.372705210E0,-3.381072929E0,3.672415545E0
7.165190292E0,-1.112259993E0,1.328404366E0,-3.646676853E0,4.037329875E0
7.175202292E0,-2.703779707E0,9.268684655E-1,-3.321888582E0,4.382288626E0
7.185213292E0,-4.553670048E0,4.760189027E-1,-3.192996068E0,5.581910855E0
7.195225292E0,-5.402289319E0,7.961159527E-1,-4.153806451E0,6.860950264E0
7.205237292E0,-4.485776857E0,1.308655395E0,-5.575829417E0,7.274932759E0
7.215249292E0,-2.180621137E0,1.621991894E0,-6.955883408E0,7.467950203E0
7.225261292E0,-2.196007354E-1,1.214580127E0,-8.031068838E0,8.125361287E0
7.235272292E0,1.293625419E0,-3.518971324E-2,-8.288305396E0,8.388725253E0
7.245284292E0,1.910991113E0,-1.340323330E0,-8.048635628E0,8.380267843E0
7.255296292E0,2.035616328E0,-2.103054605E0,-7.423259541E0,7.979433233E0
7.265308292E0,1.493836422E0,-2.136902382E0,-6.702297851E0,7.191571145E0
7.275319292E0,7.409685961E-1,-1.591810906E0,-6.540767350E0,6.772335930E0
7.285331292E0,1.759516725E-1,-3.087446809E-1,-6.889249708E0,6.898408788E0
7.295343292E0,2.417761546E-2,1.275398771E0,-7.339526829E0,7.449555735E0
7.305355292E0,-6.513967806E-1,2.631312532E0,-7.722259253E0,8.184217212E0
7.315367292E0,-1.454502203E0,3.631564139E0,-7.229866977E0,8.220389970E0
7.325378292E0,-2.216577128E0,4.154747268E0,-5.788373952E0,7.461930851E0
7.335390292E0,-2.680432945E0,4.343415867E0,-4.309760463E0,6.680121063E0
7.345402292E0,-2.604869961E0,3.974726701E0,-3.554196121E0,5.934316298E0
7.355414292E0,-2.015922906E0,2.502224722E0,-3.379674275E0,4.663397037E0
7.365425292E0,-5.772672424E-1,-1.856935358E-1,-2.840579703E0,2.904584756E0
7.375437292E0,2.182721164E0,-3.385736668E0,1.757113154E-1,4.032165539E0
7.385449292E0,4.741026239E0,-6.959411618E0,3.821452467E0,9.247390920E0
7.395461292E0,6.101221039E0,-1.087407864E1,3.490362067E0,1.294809298E1
7.405473292E0,7.213169083E0,-1.461211707E1,1.363417493E0,1.635245183E1
7.415484292E0,8.127528015E0,-1.775523756E1,8.970236921E-1,1.954762962E1
7.425496292E0,8.930861186E0,-1.928661515E1,1.372269301E0,2.129828464E1
7.435508292E0,7.327304978E0,-1.883724610E1,5.963750660E-1,2.022095206E1
7.445520292E0,2.995857485E0,-1.525777130E1,2.263932850E0,1.571305633E1
7.455531292E0,-4.088188997E-1,-1.170461949E1,6.514296420E0,1.340154126E1
7.465543292E0,-3.130544881E0,-8.967495162E0,1.097133772E1,1.451159992E1
7.475555292E0,-5.786308131E0,-6.201832910E0,1.496716468E1,1.720349127E1
7.485567292E0,-8.475418636E0,-3.870655618E0,1.650488417E1,1.895325559E1
7.495579292E0,-9.171180580E0,-1.692238004E0,1.269366433E1,1.575129635E1
7.505590292E0,-8.330922827E0,7.075224495E-1,9.105967169E0,1.236218028E1
7.515602292E0,-7.511353108E0,2.942194371E0,7.029503362E0,1.070003975E1
7.525614292E0,-7.194687204E0,4.442470039E0,5.296547686E0,9.977598980E0
7.535626292E0,-7.132246542E0,5.591497031E0,4.952482899E0,1.032767479E1
7.545637292E0,-6.898906385E0,6.913926712E0,4.668471356E0,1.082552154E1
7.555649292E0,-6.305867155E0,7.983537991E0,3.930142266E0,1.090627607E1
7.565661292E0,-5.616723089E0,8.625897315E0,2.746470813E0,1.065348697E1
7.575673292E0,-4.643802830E0,8.798953848E0,7.018331087E-1,9.973919153E0
7.585685292E0,-2.323701627E0,8.024931600E0,-1.478262656E0,8.484360725E0
7.595696292E0,3.410256967E-1,6.468724390E0,-2.286527368E0,6.869417819E0
7.605708292E0,2.090500048E0,5.454203238E0,-1.816998290E0,6.117189404E0
7.615720292E0,3.516790605E0,4.669496958E0,-8.083945209E-1,5.901315082E0
7.625732292E0,4.576437643E0,4.058640677E0,-2.983012614E-1,6.124159477E0
7.635743292E0,5.267037374E0,3.554163376E0,1.693353653E-1,6.356290936E0
7.645755292E0,5.825587971E0,2.985566093E0,8.362781382E-1,6.599275811E0
7.655767292E0,6.190909141E0,2.313989401E0,1.551694329E0,6.788936458E0
7.665779292E0,6.352758316E0,1.465466024E0,2.810916193E0,7.099744977E0
7.675791292E0,6.114748573E0,5.563941443E-1,4.237062031E0,7.460054906E0
7.685802292E0,5.314548925E0,-2.046835381E-1,5.175033774E0,7.420734478E0
7.695814292E0,2.546689873E0,-3.329983467E-1,4.725401894E0,5.378284138E0
7.705826292E0,-1.332318784E0,-2.619593543E-1,3.011336819E0,3.303308263E0
7.715838292E0,-4.353568680E0,-5.028090906E-1,1.394312719E0,4.598965665E0
7.725850292E0,-6.099645799E0,-1.325239268E0,6.909011543E-2,6.242332212E0
7.735861292E0,-7.378258785E0,-2.507243387E0,-1.514078898E0,7.938350396E0
7.745873292E0,-7.980086380E0,-3.219330173E0,-2.483071290E0,8.956087785E0
7.755885292E0,-7.259800043E0,-4.071464791E0,-2.992224902E0,8.845051276E0
7.765897292E0,-5.576383148E0,-4.921575102E0,-3.529638984E0,8.232636386E0
7.775908292E0,-4.219879695E0,-5.461331579E0,-3.942897675E0,7.948582851E0
7.785920292E0,-3.195668830E0,-5.737327759E0,-4.719730095E0,8.087340803E0
7.795932292E0,-1.317653383E0,-4.960564921E0,-4.990402093E0,7.158737865E0
7.805944292E0,4.448592001E-1,-3.236932046E0,-4.967727175E0,5.945918102E0
7.815956292E0,1.415568517E0,-1.895274966E0,-5.972933128E0,6.424315650E0
7.825967292E0,1.405452249E0,-1.128578694E0,-7.930503745E0,8.132765553E0
7.835979292E0,5.858931280E-1,-9.764563626E-1,-8.571707075E0,8.647016824E0
7.845991292E0,4.849379896E-1,-1.172190737E0,-6.179704707E0,6.308561345E0
7.856003292E0,-1.036370004E-1,-9.872023755E-1,-3.590371967E0,3.725061076E0
7.866014292E0,-1.059878661E0,-1.262476425E0,-1.941861780E0,2.547158549E0
7.876026292E0,-1.708825678E0,-2.530296035E0,-3.987309909E-1,3.079199510E0
7.886038292E0,-2.369645831E0,-4.410210950E0,1.039178568E0,5.113225410E0
7.896050292E0,-2.934006515E0,-6.131606680E0,2.630974856E0,7.288828671E0
7.906062292E0,-2.284659329E0,-7.320807552E0,3.846800147E0,8.579729765E0
7.916073292E0,-8.354145775E-1,-7.386910910E0,4.960511127E0,8.937059972E0
7.926085292E0,1.606801120E0,-5.372363854E0,6.084503850E0,8.274375524E0
7.936097292E0,3.467159731E0,-3.005143740E0,6.630913873E0,8.063566475E0
7.946109292E0,4.676632900E0,-9.961608946E-1,6.730420035E0,8.256015120E0
7.956120292E0,5.404610664E0,6.535655129E-1,6.245430919E0,8.285069201E0
7.966132292E0,5.332215117E0,1.715367835E0,5.145797696E0,7.606197394E0
7.976144292E0,5.238622829E0,2.263105177E0,3.822570163E0,6.868541100E0
7.986156292E0,5.549185994E0,2.316935813E0,2.441711595E0,6.490270586E0
7.996168292E0,5.618603554E0,1.905763117E0,1.410648085E0,6.098406921E0
8.006179292E0,5.271692927E0,1.066807539E0,6.564356187E-1,5.418462177E0
8.016191292E0,4.327548278E0,3.052714348E-1,-1.018081229E0,4.456159124E0
8.026203292E0,3.438752203E0,-1.586291134E-2,-2.228965916E0,4.097994314E0
8.036215292E0,2.506779118E0,-4.474230945E-2,-2.773709190E0,3.738904398E0
8.046226292E0,1.520686398E0,2.079796135E-1,-2.531332161E0,2.960301531E0
8.056238292E0,8.599846508E-1,6.855714172E-1,-1.494671112E0,1.855700273E0
8.066250292E0,2.762050720E-1,1.291509020E0,-7.755539265E-1,1.531590246E0
8.076262292E0,2.787624248E-1,2.286435567E0,-5.660391265E-1,2.371897212E0
8.086274292E0,5.620906480E-1,3.060613936E0,-2.483941063E-1,3.121698767E0
8.096285292E0,2.042492946E0,3.328401210E0,2.627751870E0,4.706921706E0
8.106297292E0,4.716369115E0,2.667984515E0,7.033565422E0,8.878813071E0
8.116309292E0,4.904172619E0,1.170789744E0,6.726622853E0,8.406492295E0
8.126321292E0,4.855050745E0,3.734283346E-1,5.287983270E0,7.188444444E0
8.136332292E0,4.463685199E0,7.500919336E-1,2.321136599E0,5.086727689E0
8.146344292E0,2.699369152E0,1.167401283E0,-3.428558752E-2,2.941189399E0
8.156356292E0,1.252430908E0,1.177218758E0,-9.493093483E-1,1.963572108E0
8.166367917E0,-9.658520350E-2,1.449044704E0,-2.226600863E0,2.658347355E0
8.176379917E0,-8.675376454E-1,1.260321141E0,-2.917395744E0,3.294272131E0
8.186390917E0,-1.165707637E0,6.731104159E-1,-2.725319388E0,3.039624597E0
8.196402917E0,-1.413054214E0,4.692770630E-1,-2.695069402E0,3.079016443E0
8.206414917E0,-1.407864518E0,1.184824231E0,-2.439357798E0,3.055545357E0
8.216426917E0,-1.117154624E0,1.054453542E0,-1.836560150E0,2.394339139E0
8.226437917E0,-1.381398558E0,-2.687462175E-1,-3.178898431E0,3.476475477E0
8.236449917E0,-1.878760090E0,-8.709024256E-1,-3.381457676E0,3.965156557E0
8.246461917E0,-2.673048204E0,-1.164751909E0,-4.909783607E0,5.710324752E0
8.256473917E0,-3.481824255E0,-7.886280084E-1,-7.045758621E0,7.898591572E0
8.266485917E0,-4.030335183E0,4.757177711E-2,-6.540879031E0,7.683030865E0
8.276496917E0,-3.858930781E0,1.118082358E0,-5.123375963E0,6.510793822E0
8.286508917E0,-2.612215526E0,1.706700507E0,-5.975282539E0,6.740956757E0
8.296520917E0,-7.323229031E-1,1.960176136E0,-7.156569205E0,7.456210170E0
8.306532917E0,3.563019861E-1,1.733420529E0,-7.819997216E0,8.017733738E0
8.316543917E0,-2.805205364E-1,7.574857378E-1,-7.514677835E0,7.557966616E0
8.326555917E0,-1.470591109E0,-6.503735179E-1,-6.570916763E0,6.764803843E0
8.336567917E0,-1.652103301E0,-1.434517881E0,-5.853943459E0,6.249475249E0
8.346579917E0,-1.201934354E0,-9.844319648E-1,-5.429067813E0,5.646992987E0
8.356591917E0,-1.136775321E0,-2.728427768E-2,-5.310180470E0,5.430563432E0
8.366602917E0,-1.556369178E0,5.342098081E-1,-5.767618675E0,5.997757107E0
8.376614917E0,-1.649831950E0,1.468533474E0,-6.327884846E0,6.702287867E0
8.386626917E0,-1.711473590E0,2.499343799E0,-6.134064850E0,6.841243516E0
8.396638917E0,-2.022298417E0,3.233392142E0,-4.637992744E0,6.004622580E0
8.406649917E0,-2.401565489E0,3.734709023E0,-2.585775586E0,5.138268548E0
8.416661917E0,-2.370989229E0,4.168474776E0,-1.675734823E0,5.079946760E0
8.426673917E0,-2.162834784E0,4.198929414E0,-1.424527913E0,4.933370278E0
8.436685917E0,-1.301821169E0,3.178328328E0,-1.883263031E0,3.917038289E0
8.446697917E0,2.552511544E-1,1.954366928E0,-1.036324103E0,2.226807331E0
8.456708917E0,1.885171562E0,-1.141081211E0,7.503040414E-1,2.327851865E0
8.466720917E0,3.209147247E0,-4.910505738E0,2.087210259E0,6.226406614E0
8.476732917E0,4.663868136E0,-8.654701869E0,3.679464530E0,1.049733250E1
8.486744917E0,5.760064657E0,-1.267274299E1,2.527241157E0,1.414792238E1
8.496755917E0,7.266394533E0,-1.695278907E1,1.390030218E0,1.849674920E1
8.506767917E0,8.816518884E0,-1.986475041E1,1.265583050E0,2.177018637E1
8.516779917E0,8.639582723E0,-2.029939500E1,-4.097173244E-2,2.206149373E1
8.526791917E0,4.977077458E0,-1.654417746E1,-1.033042207E-1,1.727691464E1
8.536803917E0,1.813934642E0,-1.041509093E1,3.312299440E0,1.107861929E1
8.546814917E0,-1.192855565E-1,-6.035369697E0,8.155895782E0,1.014684938E1
8.556826917E0,-2.860942047E0,-2.874776559E0,1.512402911E1,1.565840305E1
8.566838917E0,-6.055658365E0,-1.051616473E0,1.661162743E1,1.771222914E1
8.576850917E0,-7.787351042E0,4.980248988E-1,1.253797052E1,1.476792368E1
8.586861917E0,-6.933345900E0,2.420756636E0,8.869325089E0,1.151504562E1
8.596873917E0,-6.065564134E0,4.392209712E0,5.779345851E0,9.459567267E0
8.606885917E0,-6.915593169E0,5.185775110E0,3.691317713E0,9.399123301E0
8.616897917E0,-7.685076224E0,4.876838640E0,2.845660641E0,9.536337671E0
8.626909917E0,-7.170200819E0,4.790737220E0,2.977539327E0,9.122975575E0
8.636920917E0,-5.815233137E0,6.068422253E0,2.235568299E0,8.697151873E0
8.646932917E0,-4.580951402E0,7.018866107E0,1.099872374E0,8.453361249E0
8.656944917E0,-2.620253401E0,6.890094631E0,-1.686027092E-1,7.373436023E0
8.666956917E0,5.699160498E-2,6.015164643E0,-6.812514943E-1,6.053887786E0
8.676967917E0,2.059022440E0,4.728566700E0,-1.949929476E-1,5.161098593E0
8.686979917E0,3.343543160E0,3.610534043E0,2.561179858E-1,4.927558560E0
8.696991917E0,4.326662132E0,2.860923920E0,2.101793361E-1,5.191249006E0
8.707003917E0,5.130331811E0,2.606097584E0,1.748872966E-2,5.754333581E0
8.717015917E0,5.827150347E0,2.495718525E0,-9.637497783E-2,6.339840713E0
8.727026917E0,6.115960701E0,2.168538158E0,1.369435447E-1,6.490476606E0
8.737038917E0,6.079061261E0,2.052039403E0,7.769107729E-1,6.462928274E0
8.747050917E0,5.256743351E0,2.141662601E0,1.849963723E0,5.970128569E0
8.757062917E0,3.725107895E0,1.998475399E0,2.996516758E0,5.181645051E0
8.767073917E0,1.427569343E0,1.663218273E0,3.421358491E0,4.063242938E0
8.777085917E0,-8.153237638E-1,1.323628945E0,3.099176908E0,3.467224240E0
8.787097917E0,-2.743635791E0,9.368520015E-1,2.264140426E0,3.678527001E0
8.797109917E0,-4.493432324E0,4.876642174E-1,1.253189584E0,4.690334165E0
8.807120917E0,-5.261972516E0,-4.296066284E-1,3.761361802E-1,5.292862650E0
8.817132917E0,-5.914107800E0,-1.601971613E0,-5.359902853E-1,6.150631650E0
8.827144917E0,-6.300966019E0,-2.575648209E0,-1.376911405E0,6.944927752E0
8.837156917E0,-5.622832845E0,-3.514408157E0,-1.899824977E0,6.897582826E0
8.847168917E0,-4.158559068E0,-4.473313517E0,-2.225107923E0,6.500404034E0
8.857179917E0,-3.198352410E0,-5.277005707E0,-3.068188712E0,6.891300990E0
8.867191917E0,-2.327646305E0,-5.025850253E0,-3.584142928E0,6.597210669E0
8.877203917E0,-1.178682754E0,-4.218724578E0,-4.482049257E0,6.267032443E0
8.887215917E0,4.444998887E-1,-3.205075831E0,-7.025600930E0,7.734931135E0
8.897226917E0,1.416468696E0,-1.722741174E0,-8.334577922E0,8.627827644E0
8.907238917E0,1.859760733E0,-7.309849870E-1,-8.068853545E0,8.312607688E0
8.917250917E0,1.975047945E0,-2.257890630E-1,-6.991362559E0,7.268489906E0
8.927262917E0,1.626059802E0,1.662813646E-1,-4.467899872E0,4.757504518E0
8.937274917E0,2.074692247E-1,-7.885671973E-2,-2.117479979E0,2.129080393E0
8.947285917E0,-1.259519780E0,-9.947809517E-1,-7.507205093E-1,1.771880499E0
8.957297917E0,-1.929246120E0,-2.413954570E0,4.320434555E-1,3.120228966E0
8.967309917E0,-2.646218255E0,-4.646761814E0,1.971938396E0,5.699421676E0
8.977321917E0,-3.423521960E0,-7.751721033E0,3.516623667E0,9.174765589E0
8.987332917E0,-3.308035943E0,-1.026405968E1,4.729320406E0,1.177541908E1
8.997344917E0,-1.667378567E0,-1.058140211E1,6.096886498E0,1.232551203E1
9.007356917E0,1.292086432E0,-7.977714164E0,6.956522509E0,1.066333044E1
9.017368917E0,4.043324773E0,-4.006536723E0,7.248734187E0,9.216558960E0
9.027380917E0,5.495781035E0,-1.354434416E0,6.915229472E0,8.936358342E0
9.037391917E0,5.795003525E0,3.021946299E-1,6.378084362E0,8.622838719E0
9.047403917E0,5.795376577E0,1.525496464E0,5.778823110E0,8.325162201E0
9.057415917E0,5.913892622E0,2.195349981E0,5.079714804E0,8.099209219E0
9.067427917E0,6.210254654E0,2.453814454E0,3.426081579E0,7.505098483E0
9.077438917E0,6.720655185E0,1.742319406E0,1.492827193E0,7.101508013E0
9.087450917E0,6.899104605E0,6.362098074E-1,-8.281177640E-2,6.928871846E0
9.097462917E0,6.451567490E0,-1.848135298E-1,-1.166691138E0,6.558814476E0
9.107474917E0,5.229860192E0,-5.970515889E-1,-2.743371204E0,5.935822925E0
9.117486917E0,3.190795761E0,-7.215627837E-1,-4.496901477E0,5.560930977E0
9.127497917E0,1.616130791E0,-4.709815264E-2,-4.875506937E0,5.136600516E0
9.137509917E0,8.506247203E-1,7.010881734E-1,-4.686134333E0,4.814035939E0
9.147521917E0,3.015818417E-1,1.652976290E0,-3.867418599E0,4.216658493E0
9.157533917E0,-2.158253344E-1,2.756042998E0,-3.138275193E0,4.182239205E0
9.167544833E0,-7.271204160E-1,3.342899382E0,-2.298875518E0,4.121711904E0
9.177556833E0,-1.196465745E0,3.584307527E0,-1.061647371E0,3.925033231E0
9.187568833E0,-1.376094841E0,3.104446419E0,3.765245522E0,5.070335139E0
9.197580833E0,3.343929076E-1,1.417112474E0,1.262289898E1,1.270659691E1
9.207591833E0,1.032700438E0,6.417921442E-1,1.071855908E1,1.078730161E1
9.217603833E0,5.839859855E-1,9.295143306E-1,5.911484739E0,6.012544248E0
9.227615833E0,2.601356077E-1,8.909689003E-1,2.001262182E0,2.206025031E0
9.237627833E0,-2.713701372E-1,7.062009788E-1,-3.085838825E-2,7.571748899E-1
9.247639833E0,-8.608697730E-1,8.172512984E-1,-1.023928299E0,1.567617814E0
9.257650833E0,-7.177986386E-1,7.929876924E-1,-1.703876302E0,2.011780013E0
9.267662833E0,-4.553062741E-1,1.119133102E0,-1.530561468E0,1.949969516E0
9.277674833E0,3.728474137E-1,9.645526010E-1,-1.423089498E0,1.759136332E0
9.287686833E0,7.098724455E-1,7.111921620E-1,-1.090438988E0,1.482825130E0
9.297697833E0,7.820770803E-1,5.665636218E-1,-1.218494180E0,1.554788398E0
9.307709833E0,3.835791010E-1,8.255204308E-1,-2.402712128E0,2.569366163E0
9.317721833E0,-4.692466575E-1,1.474081897E0,-4.682294759E0,4.931226426E0
9.327733833E0,-8.752937577E-1,1.723458627E0,-6.508900609E0,6.789862734E0
9.337745833E0,-1.513105337E0,1.732310143E0,-7.245726380E0,7.602035054E0
9.347756833E0,-2.586758503E0,2.045941342E0,-5.829950579E0,6.698172831E0
9.357768833E0,-2.664530565E0,3.230058060E0,-5.163123581E0,6.647619372E0
9.367780833E0,-1.439275176E0,4.442916182E0,-6.229744009E0,7.785931392E0
9.377792833E0,-4.191118996E-1,4.099298707E0,-6.910269864E0,8.045603412E0
9.387803833E0,2.198148897E-1,2.228408384E0,-7.696190611E0,8.015327344E0
9.397815833E0,-6.059740014E-2,-8.929066676E-1,-7.781280463E0,7.832578120E0
9.407827833E0,-1.099682047E0,-3.215029546E0,-6.778286512E0,7.582274304E0
9.417839833E0,-1.869589902E0,-3.919008583E0,-5.906833279E0,7.331075914E0
9.427851833E0,-1.811240245E0,-3.865432300E0,-5.354436291E0,6.847784027E0
9.437862833E0,-1.604628295E0,-2.933191997E0,-4.791050631E0,5.842312334E0
9.447874833E0,-1.796558763E0,-1.594918701E0,-4.466830709E0,5.071879892E0
9.457886833E0,-2.403443907E0,-5.378684109E-1,-4.782694375E0,5.379592041E0
9.467898833E0,-2.741171482E0,4.138846350E-1,-5.301021391E0,5.982152570E0
9.477909833E0,-2.850862909E0,1.213625861E0,-5.535214072E0,6.343414056E0
9.487921833E0,-2.988414856E0,1.593170968E0,-4.806700119E0,5.879896523E0
9.497933833E0,-2.638279490E0,1.950711249E0,-3.342143337E0,4.683557956E0
9.507945833E0,-1.869592826E0,1.781302208E0,-1.879992099E0,3.194179892E0
9.517956833E0,-1.129282115E0,1.107422884E0,-1.424883424E0,2.128839193E0
9.527968833E0,4.326194063E-1,-3.619099045E-1,-1.230955547E0,1.354027285E0
9.537980833E0,2.390591727E0,-3.016634104E0,-2.268205118E-1,3.855704562E0
9.547992833E0,4.768609309E0,-5.450168660E0,1.587615090E0,7.413804343E0
9.558004833E0,6.579078891E0,-7.872622742E0,2.044591219E0,1.046149230E1
9.568015833E0,8.314095125E0,-9.969496840E0,1.998819508E0,1.313431857E1
9.578027833E0,9.478527777E0,-1.186351758E1,1.180569359E0,1.523086610E1
9.588039833E0,1.023077499E1,-1.319277798E1,1.390657624E0,1.675267371E1
9.598051833E0,9.746599810E0,-1.356153848E1,2.846256765E0,1.694144951E1
9.608062833E0,5.853353475E0,-1.173408712E1,4.132185202E0,1.374865455E1
9.618074833E0,1.477083272E0,-9.043505457E0,6.007327620E0,1.095694990E1
9.628086833E0,-2.310715545E0,-7.482294200E0,8.032908372E0,1.121836663E1
9.638098833E0,-6.759466079E0,-6.209647129E0,1.040198147E1,1.387268242E1
9.648109833E0,-9.530540514E0,-4.307321005E0,1.130249244E1,1.539904387E1
9.658121833E0,-9.527061421E0,-1.642280563E0,9.250070629E0,1.338005200E1
9.668133833E0,-9.014423161E0,1.124881500E0,7.307534373E0,1.165869812E1
9.678145833E0,-8.820885585E0,3.562278727E0,5.429434433E0,1.095338352E1
9.688157833E0,-8.375233612E0,5.353936354E0,4.214361093E0,1.079675933E1
9.698168833E0,-7.276234227E0,6.796643845E0,3.558861029E0,1.057371476E1
9.708180833E0,-5.914119494E0,7.962584494E0,3.270655863E0,1.044398157E1
9.718192833E0,-4.506936176E0,8.897277119E0,2.800829161E0,1.035947189E1
9.728204833E0,-2.320670430E0,8.983828774E0,2.000386269E0,9.491903703E0
9.738215833E0,6.816847730E-1,7.773477353E0,1.883351324E0,8.027369214E0
9.748227833E0,2.740105827E0,6.351892344E0,1.650567237E0,7.111897672E0
9.758239833E0,3.874729080E0,4.987504798E0,1.142428117E0,6.418245208E0
9.768251833E0,4.709888062E0,3.773101256E0,8.939001095E-1,6.100688162E0
9.778263833E0,5.455642238E0,2.940264789E0,5.605515146E-1,6.222813452E0
9.788274833E0,5.831064473E0,2.203341955E0,5.357686758E-1,6.256442818E0
9.798286833E0,5.959530725E0,1.569620138E0,1.104775849E0,6.261009784E0
9.808298833E0,6.187589092E0,1.094939078E0,1.478633954E0,6.455347297E0
9.818310833E0,6.140153555E0,7.745005506E-1,1.416045358E0,6.348741705E0
9.828321833E0,5.252650884E0,6.379949623E-1,1.289273629E0,5.446063292E0
9.838333833E0,3.395928950E0,4.738758981E-1,1.928078431E0,3.933748624E0
9.848345833E0,1.141710737E0,4.019568998E-1,2.655946267E0,2.918753729E0
9.858357833E0,-1.331967951E0,5.714822996E-1,2.471337390E0,2.865002467E0
9.868368833E0,-3.979301270E0,7.534534979E-1,1.454691945E0,4.303331201E0
9.878380833E0,-6.132644561E0,6.130542487E-1,1.735593939E-1,6.165653873E0
9.888392833E0,-7.903135852E0,-3.806812209E-1,-1.200542424E0,8.002860526E0
9.898404833E0,-9.088396870E0,-1.695115419E0,-2.664655987E0,9.621474185E0
9.908416833E0,-8.270374909E0,-2.763126900E0,-2.765735050E0,9.147855583E0
9.918427833E0,-6.071013154E0,-3.329581178E0,-2.429006180E0,7.337805023E0
9.928439833E0,-3.872312426E0,-3.703021792E0,-2.946133347E0,6.114480814E0
9.938451833E0,-2.155717845E0,-4.003565168E0,-3.930824636E0,6.010576994E0
9.948463833E0,-5.527265148E-1,-3.845451779E0,-4.377561560E0,5.852866921E0
9.958474833E0,6.718085334E-1,-2.897413470E0,-5.032241260E0,5.845492590E0
9.968486833E0,1.361825881E0,-2.234922182E0,-7.483749572E0,7.928174730E0
9.978498833E0,1.891387737E0,-2.189951831E0,-9.516226530E0,9.946446801E0
9.988510833E0,1.258364370E0,-2.901405948E0,-9.056406169E0,9.592712341E0
9.998521833E0,8.379169665E-2,-4.179671025E0,-5.841992919E0,7.183700453E0
1.000853383E1,-6.826312179E-1,-4.587010871E0,-2.377171783E0,5.211295405E0
1.001854583E1,-9.333454263E-1,-4.743876464E0,-6.794312561E-1,4.882327767E0
1.002855783E1,-1.099156675E0,-5.790366098E0,1.107659111E0,5.996948695E0
1.003856983E1,-1.751558299E0,-7.565688944E0,3.333195927E0,8.450905322E0
1.004858083E1,-2.239280404E0,-8.867927020E0,4.175510731E0,1.005432227E1
1.005859283E1,-5.276389264E-1,-7.532130604E0,5.054115694E0,9.086004607E0
1.006860483E1,1.903601986E0,-3.679075105E0,6.456134166E0,7.670786304E0
1.007861683E1,3.370908714E0,-7.586545962E-1,7.578054051E0,8.328594452E0
1.008862783E1,4.331117418E0,6.784916085E-1,7.672614638E0,8.836738331E0
1.009863983E1,4.798548515E0,1.282093833E0,7.380422840E0,8.896093173E0
1.010865183E1,4.938241421E0,1.718698994E0,6.785572143E0,8.566454568E0
1.011866383E1,5.301044195E0,2.249896901E0,5.626708964E0,8.051270669E0
1.012867483E1,5.610938439E0,2.069168821E0,4.088807925E0,7.244476518E0
1.013868683E1,5.324500301E0,9.284021902E-1,2.281280077E0,5.866555452E0
1.014869883E1,5.231766969E0,-2.189495748E-1,1.746680260E-2,5.236375619E0
1.015871083E1,4.974644431E0,-1.069082690E0,-1.649950648E0,5.349052454E0
1.016872317E1,3.932287902E0,-1.611316048E0,-3.326691484E0,5.396860549E0
1.017873417E1,2.493734565E0,-1.433231494E0,-3.821708283E0,4.783128557E0
1.018874617E1,8.674864092E-1,-1.089444450E0,-3.283813267E0,3.566910632E0
1.019875817E1,-5.101713198E-1,-1.378410923E-1,-2.896583165E0,2.944396198E0
1.020877017E1,-1.471806745E0,1.197344874E0,-3.003916994E0,3.552937820E0
1.021878117E1,-2.367851028E0,2.438629235E0,-2.812308708E0,4.411656300E0
1.022879317E1,-2.578825586E0,3.637554027E0,-2.986828214E0,5.366869058E0
1.023880517E1,-2.413130989E0,4.128976834E0,-2.000464914E0,5.183966700E0
1.024881717E1,-4.205609858E-2,3.484703717E0,6.583333325E0,7.448839264E0
1.025882817E1,3.813154684E0,1.871798396E0,1.373585567E1,1.437767397E1
1.026884017E1,3.918168923E0,1.304474051E0,8.020115833E0,9.020862389E0
1.027885217E1,3.031088421E0,1.785195869E0,3.361929145E0,4.865900624E0
1.028886417E1,2.393306005E0,2.161734338E0,2.397041206E-1,3.233955325E0
1.029887617E1,1.157499900E0,2.497619455E0,-1.444944052E0,3.108982514E0
1.030888717E1,6.079043135E-1,2.603651694E0,-2.424998206E0,3.609593619E0
1.031889917E1,8.347064066E-1,2.248552626E0,-2.619713995E0,3.551848127E0
1.032891117E1,1.345333225E0,1.754664048E0,-2.186080828E0,3.109295225E0
1.033892317E1,1.874289017E0,1.230069401E0,-1.313856493E0,2.598508983E0
1.034893417E1,1.857327706E0,8.767841399E-1,-1.058661710E0,2.310666841E0
1.035894617E1,1.154158728E0,5.653345370E-1,-1.374347109E0,1.881625755E0
1.036895817E1,7.980469957E-1,3.701234883E-1,-1.966346118E0,2.154155858E0
1.037897017E1,8.770486533E-1,8.442911625E-2,-2.984552186E0,3.111895622E0
1.038898117E1,1.638834214E-1,-6.422967589E-1,-3.423188669E0,3.486778394E0
1.039899317E1,-9.298498146E-1,-1.073485059E0,-3.121822005E0,3.429688540E0
1.040900517E1,-2.859117715E0,-2.211200613E-1,-3.220895473E0,4.312495315E0
1.041901717E1,-3.824985063E0,1.396540800E0,-4.924770021E0,6.390164059E0
1.042902917E1,-3.203272550E0,2.162350634E0,-7.240017158E0,8.206982621E0
1.043904017E1,-1.615554402E0,2.188197082E0,-9.140214311E0,9.536337879E0
1.044905217E1,-1.148751296E-1,1.827492873E0,-9.813256899E0,9.982631790E0
1.045906417E1,8.783231270E-1,7.816323996E-1,-8.979373780E0,9.056023090E0
1.046907617E1,9.322809407E-1,-3.808502054E-1,-7.796943399E0,7.861712346E0
1.047908717E1,9.267944983E-1,-1.285841314E0,-6.863574584E0,7.044216919E0
1.048909917E1,8.163863491E-1,-1.888045469E0,-6.447387316E0,6.767570137E0
1.049911117E1,-1.042973703E-1,-1.829309018E0,-6.416098280E0,6.672598187E0
1.050912317E1,-9.833712798E-1,-6.934698361E-1,-6.391903086E0,6.504179007E0
1.051913417E1,-1.484303707E0,6.094973874E-1,-6.761144814E0,6.948936880E0
1.052914617E1,-2.195249993E0,1.367458504E0,-6.989036536E0,7.452227653E0
1.053915817E1,-2.680358685E0,1.825157495E0,-6.612915559E0,7.365200252E0
1.054917017E1,-3.149672585E0,1.731523107E0,-5.164985919E0,6.292510565E0
1.055918217E1,-3.140600630E0,1.087237126E0,-3.045620506E0,4.507910952E0
1.056919317E1,-2.385148262E0,1.444730043E-2,-1.914756135E0,3.058665070E0
1.057920517E1,-8.133997375E-1,-1.084574888E0,-1.717533059E0,2.188113715E0
1.058921717E1,1.601755558E0,-1.852822427E0,1.089056633E0,2.680413431E0
1.059922917E1,4.581063083E0,-4.051429306E0,3.783298216E0,7.191214347E0
1.060924017E1,6.422543081E0,-7.928884651E0,4.492369008E0,1.114888563E1
1.061925217E1,8.269953910E0,-1.012518597E1,3.473035890E0,1.352677001E1
1.062926417E1,9.013974679E0,-1.276311755E1,9.041083248E-1,1.565139997E1
1.063927617E1,9.650747573E0,-1.405550190E1,-2.308685392E-2,1.704976819E1
1.064928717E1,8.797466902E0,-1.476559713E1,6.720663956E-1,1.720087078E1
1.065929917E1,6.091067934E0,-1.353526811E1,2.000023742E0,1.497680494E1
1.066931117E1,2.880884853E0,-1.065723582E1,3.854495960E0,1.169330201E1
1.067932317E1,5.942384569E-1,-8.090514556E0,6.407130405E0,1.033735291E1
1.068933417E1,-2.516488712E0,-6.092736729E0,9.016274974E0,1.116903625E1
1.069934617E1,-6.837206565E0,-4.577743619E0,1.321960968E1,1.557116599E1
1.070935817E1,-9.267515212E0,-2.935074216E0,1.478035082E1,1.769068312E1
1.071937017E1,-9.188155632E0,-7.453884333E-1,1.128403044E1,1.457076356E1
1.072938217E1,-8.484396451E0,1.435733517E0,7.959689537E0,1.172190136E1
1.073939317E1,-7.997370164E0,3.141268090E0,5.862207913E0,1.040148914E1
1.074940517E1,-7.766566529E0,4.469303496E0,4.306089581E0,9.941661676E0
1.075941717E1,-7.035594406E0,5.597821965E0,3.861987705E0,9.785200480E0
1.076942917E1,-6.244226393E0,6.786295443E0,3.347712517E0,9.810777145E0
1.077944017E1,-5.674301791E0,7.429612541E0,2.229449188E0,9.610790135E0
1.078945217E1,-4.372411917E0,7.238665282E0,1.948993921E-2,8.456751202E0
1.079946417E1,-1.936622382E0,6.202336940E0,-7.535230798E-1,6.541199186E0
1.080947617E1,2.726864186E-1,4.835325748E0,-6.731282499E-1,4.889563847E0
1.081948717E1,2.352168796E0,4.095365285E0,-1.046143479E0,4.837264830E0
1.082949917E1,3.961493282E0,3.725333013E0,-1.028848000E0,5.534443359E0
1.083951117E1,5.042523589E0,3.561743122E0,-8.299999827E-1,6.229121782E0
1.084952317E1,5.866382241E0,3.497536016E0,-3.865714136E-1,6.840806695E0
1.085953517E1,6.499840933E0,3.664715513E0,2.286541986E-1,7.465276598E0
1.086954617E1,6.924922986E0,3.628771509E0,1.081295770E0,7.892511740E0
1.087955817E1,6.880520400E0,3.317959253E0,2.186014316E0,7.945380618E0
1.088957017E1,6.444756069E0,3.062137721E0,3.359636452E0,7.886616847E0
1.089958217E1,4.606369540E0,3.009368938E0,3.762608720E0,6.665745730E0
1.090959317E1,1.224270133E0,2.925525128E0,2.642939136E0,4.128275901E0
1.091960517E1,-1.356793475E0,2.699884585E0,1.666124339E0,3.450541351E0
1.092961717E1,-3.464893350E0,2.115474676E0,4.711955345E-1,4.086899101E0
1.093962917E1,-5.178523977E0,1.128647107E0,-8.921658254E-1,5.374654848E0
1.094964017E1,-6.161066707E0,-9.073475361E-2,-1.741509275E0,6.403110987E0
1.095965217E1,-6.183594859E0,-1.751473807E0,-2.024582925E0,6.738207618E0
1.096966417E1,-5.344148700E0,-3.810268498E0,-1.698242510E0,6.779535307E0
1.097967617E1,-4.818588385E0,-5.795215194E0,-2.129386079E0,7.831832368E0
1.098968717E1,-4.003057045E0,-7.248768686E0,-3.367096037E0,8.939040714E0
1.099969917E1,-2.375911708E0,-7.183289811E0,-4.099497804E0,8.605259508E0
1.100971117E1,1.666365829E-1,-5.396436841E0,-4.187112776E0,6.832365017E0
1.101972317E1,2.186805152E0,-3.597141581E0,-5.689482332E0,7.077552793E0
1.102973517E1,3.365473727E0,-2.395483800E0,-8.337846515E0,9.305076064E0
1.103974617E1,3.363395334E0,-1.038604664E0,-1.024113158E1,1.082921530E1
1.104975817E1,3.105125573E0,3.329989314E-3,-8.141250261E0,8.713310033E0
1.105977017E1,2.611285234E0,-6.062925285E-1,-3.825365717E0,4.671169454E0
1.106978217E1,8.803842705E-1,-2.399360504E0,-1.416884433E0,2.922254060E0
1.107979317E1,-7.840692267E-1,-4.244897885E0,-3.554873228E-2,4.316849119E0
1.108980517E1,-2.095547365E0,-6.427700325E0,1.896846113E0,7.021728805E0
1.109981717E1,-3.150875942E0,-8.669676003E0,3.764942344E0,9.963237027E0
1.110982917E1,-2.995990509E0,-9.780342922E0,5.457470078E0,1.159375032E1
1.111984017E1,-1.276101022E0,-8.886651558E0,7.207827067E0,1.151320028E1
1.112985217E1,9.042880536E-1,-5.145615848E0,8.494237899E0,9.972320534E0
1.113986417E1,1.830536203E0,-1.530423912E0,8.498567762E0,8.827157762E0
1.114987617E1,1.701278969E0,-1.407138294E-1,7.569977292E0,7.760071308E0
1.115988717E1,1.815985260E0,3.850385660E-1,6.531294860E0,6.789983042E0
1.116989908E1,2.353277574E0,4.122421521E-1,5.907888701E0,6.372676662E0
1.117991108E1,2.875242582E0,1.514060479E-1,4.531462907E0,5.368808041E0
1.118992308E1,3.496293190E0,-2.914515406E-1,1.828911115E0,3.956504258E0
1.119993508E1,4.246318466E0,-6.176869977E-1,-1.257446065E0,4.471457072E0
1.120994608E1,4.542892752E0,-1.042360330E0,-3.115412579E0,5.606263029E0
1.121995808E1,4.383685057E0,-1.164367747E0,-3.589956814E0,5.784482419E0
1.122997008E1,3.882662290E0,-6.368038845E-1,-3.743605269E0,5.430945227E0
1.123998208E1,3.283574701E0,1.513195091E-1,-2.956923799E0,4.421329977E0
1.124999308E1,2.473459637E0,1.212797311E0,-2.439642265E0,3.679773672E0
1.126000508E1,1.909112110E0,2.235859491E0,-1.502356693E0,3.301643885E0
1.127001708E1,1.409922153E0,2.917370017E0,-8.218296683E-1,3.342803060E0
1.128002908E1,7.131147265E-1,3.590881552E0,-1.765555072E-1,3.665260533E0
1.129004008E1,-6.145281125E-2,4.031487962E0,1.494735139E0,4.300105205E0
1.130005208E1,-5.324307927E-1,3.784298090E0,3.389085953E0,5.107866304E0
1.131006408E1,7.866402474E-1,3.155073951E0,7.381065449E0,8.065570139E0
1.132007608E1,2.568431868E0,2.409594301E0,7.577614925E0,8.356029853E0
1.133008708E1,2.710693163E0,2.027812634E0,3.877859680E0,5.147589455E0
1.134009908E1,2.101445451E0,1.614933136E0,1.053579383E0,2.852036384E0
1.135011108E1,7.370690149E-1,1.105137207E0,-1.327818913E0,1.878217784E0
1.136012308E1,-3.663102266E-1,7.279151988E-1,-2.545884712E0,2.673120402E0
1.137013408E1,-6.148633772E-1,2.496632445E-1,-2.758435678E0,2.837138717E0
1.138014608E1,-3.667218706E-1,8.201421618E-2,-1.764314293E0,1.803889183E0
1.139015808E1,1.643199161E-1,3.394449019E-1,-6.608289242E-1,7.608670996E-1
1.140017008E1,3.891845343E-1,8.177143979E-1,-5.602824696E-1,1.064912148E0
1.141018208E1,4.337370650E-1,1.295518456E0,-6.509353622E-1,1.513344890E0
1.142019308E1,1.092010646E-1,1.415258322E0,-1.252665381E0,1.893159145E0
1.143020508E1,-3.244330528E-1,1.710339230E0,-2.596944938E0,3.126442083E0
1.144021708E1,-7.625184363E-1,2.086773033E0,-4.330268987E0,4.866958553E0
1.145022908E1,-1.235595897E0,2.120856453E0,-5.645381463E0,6.155896456E0
1.146024008E1,-2.631164306E0,2.155497698E0,-5.130115464E0,6.155264462E0
1.147025208E1,-4.334583355E0,2.170242037E0,-3.444256187E0,5.946550601E0
1.148026408E1,-4.809355339E0,2.193239136E0,-2.714834746E0,5.942265930E0
1.149027608E1,-3.587008063E0,2.546635494E0,-3.816106943E0,5.823628713E0
1.150028708E1,-1.047269652E0,3.155537635E0,-6.160048707E0,7.000027968E0
1.151029908E1,1.602828376E0,2.255310838E0,-7.889119492E0,8.360244741E0
1.152031108E1,3.626718552E0,1.035436642E-1,-8.654821737E0,9.384548366E0
1.153032308E1,3.843938812E0,-1.578978606E0,-8.361900206E0,9.337580741E0
1.154033408E1,2.938404790E0,-2.630625485E0,-6.879399489E0,7.929725750E0
1.155034608E1,1.910867736E0,-3.116251363E0,-5.431756947E0,6.547245344E0
1.156035808E1,9.710864990E-1,-2.574018005E0,-4.806394309E0,5.538050554E0
1.157037008E1,-2.640602589E-3,-1.026944146E0,-4.977539973E0,5.082373996E0
1.158038108E1,-9.594647194E-1,2.213106805E-1,-5.813217017E0,5.896019255E0
1.159039308E1,-1.512038220E0,1.135402980E0,-6.649031471E0,6.912670903E0
1.160040508E1,-2.032919885E0,1.426497256E0,-6.483855815E0,6.943201272E0
1.161041708E1,-2.545154687E0,1.106647543E0,-5.067040379E0,5.777315931E0
1.162042908E1,-2.609920786E0,6.054639781E-1,-3.210703776E0,4.181733119E0
1.163044008E1,-2.595426416E0,-6.010212636E-1,-2.174537401E0,3.438906476E0
1.164045208E1,-1.529404743E0,-2.353659251E0,-2.466547351E0,3.736662491E0
1.165046408E1,5.938800591E-1,-2.983734160E0,1.076474741E0,3.227097911E0
1.166047608E1,1.935861367E0,-4.747018173E0,4.253386288E0,6.661308857E0
1.167048708E1,3.637414571E0,-7.410991498E0,4.001425087E0,9.174147507E0
1.168049908E1,4.618724707E0,-9.838113413E0,3.312184542E0,1.136185108E1
1.169051108E1,5.091207506E0,-1.154436836E1,2.577929500E0,1.287783193E1
1.170052308E1,6.032047309E0,-1.235425568E1,2.539328814E0,1.398075173E1
1.171053408E1,6.632874445E0,-1.280322478E1,2.847568295E0,1.469783090E1
1.172054608E1,5.633423322E0,-1.189761035E1,3.021093190E0,1.350613174E1
1.173055808E1,2.020939817E0,-8.670817965E0,2.584272852E0,9.270692967E0
1.174057008E1,-1.261311367E0,-6.104527640E0,2.573834695E0,6.743944625E0
1.175058108E1,-3.841702545E0,-5.054536108E0,3.223675531E0,7.120329883E0
1.176059308E1,-5.025971875E0,-3.916856223E0,6.056904992E0,8.791373843E0
1.177060508E1,-6.553109068E0,-2.789232963E0,9.436576928E0,1.182252270E1
1.178061708E1,-8.144013070E0,-1.299961755E0,1.149339234E1,1.414612727E1
1.179062808E1,-8.592294536E0,7.560648644E-1,1.080570130E1,1.382614697E1
1.180064008E1,-8.245062897E0,2.499553714E0,8.894087462E0,1.238279543E1
1.181065208E1,-7.724558963E0,3.896762851E0,7.376992863E0,1.136985469E1
1.182066408E1,-7.431329284E0,4.967793249E0,6.042327299E0,1.078950156E1
1.183067608E1,-7.032325813E0,5.966992941E0,5.138436636E0,1.055756327E1
1.184068708E1,-6.060995704E0,6.947720110E0,4.293247926E0,1.017047007E1
1.185069908E1,-4.004937510E0,7.194531083E0,3.908887053E0,9.114834061E0
1.186071108E1,-1.161054423E0,6.387061007E0,3.670387897E0,7.457502464E0
1.187072308E1,9.331343418E-1,5.421386910E0,2.512046290E0,6.047524476E0
1.188073408E1,2.327546756E0,4.551869105E0,1.600247853E0,5.357030842E0
1.189074608E1,3.177826052E0,3.723913309E0,1.232097800E0,5.048185192E0
1.190075808E1,3.984469332E0,3.181637852E0,9.507575575E-1,5.186786597E0
1.191077008E1,4.847749912E0,2.757648059E0,8.983580267E-1,5.649101624E0
1.192078108E1,5.319966955E0,2.564455469E0,8.326186582E-1,5.964204396E0
1.193079308E1,5.382781838E0,2.332374802E0,6.982277155E-1,5.907777456E0
1.194080508E1,5.055121415E0,1.878675306E0,5.563666624E-1,5.421551188E0
1.195081708E1,4.337842886E0,1.667528840E0,1.896257883E-1,4.651181707E0
1.196082808E1,2.887090795E0,1.518572191E0,2.297283322E-1,3.270188047E0
1.197084008E1,9.024396756E-1,1.420270556E0,5.727160621E-1,1.777517794E0
1.198085208E1,-1.199613594E0,1.434907891E0,1.154456717E-1,1.873862624E0
1.199086408E1,-3.080817236E0,1.488517503E0,-8.246918803E-1,3.519550524E0
1.200087508E1,-4.419779042E0,1.142591547E0,-1.635008381E0,4.849042650E0
1.201088708E1,-5.555197517E0,2.361637777E-1,-2.522775931E0,6.105767042E0
1.202089908E1,-6.041752517E0,-1.107195427E0,-2.922467034E0,6.802166475E0
1.203091108E1,-6.030958557E0,-2.430493419E0,-2.513282976E0,6.971108283E0
1.204092308E1,-5.746993207E0,-3.826928385E0,-2.079932668E0,7.211063145E0
1.205093408E1,-5.059278785E0,-5.233290169E0,-1.527109126E0,7.437451855E0
1.206094608E1,-4.803123669E0,-6.368245836E0,-1.318076429E0,8.084669288E0
1.207095808E1,-4.198833520E0,-6.804611846E0,-1.929953925E0,8.225428102E0
1.208097008E1,-2.271043064E0,-5.236978008E0,-1.882074877E0,6.010472618E0
1.209098108E1,-3.559328075E-1,-3.169420679E0,-2.798855726E0,4.243289877E0
1.210099308E1,2.163507798E-1,-2.505325500E0,-4.717975638E0,5.346284471E0
1.211100508E1,-3.313064548E-1,-3.445011063E0,-5.280381889E0,6.313501254E0
1.212101708E1,-1.378543363E0,-5.400610583E0,-4.119709582E0,6.931016052E0
1.213102808E1,-1.520281332E0,-5.922702622E0,-2.608115751E0,6.647701065E0
1.214104008E1,-7.214989760E-1,-5.081963643E0,-1.671136280E0,5.398111865E0
1.215105208E1,2.960299104E-2,-4.685518329E0,-3.228703845E-1,4.696722648E0
1.216106408E1,9.401540704E-2,-4.971933662E0,1.558290280E0,5.211260101E0
1.217107496E1,6.893819015E-1,-4.553595203E0,3.161804388E0,5.586365873E0
1.218108696E1,2.558731337E0,-3.106339747E0,3.987576542E0,5.665440791E0
1.219109896E1,4.259971422E0,-1.838937044E0,4.272203505E0,6.307199755E0
1.220111096E1,5.145619356E0,-1.148870872E0,4.650311658E0,7.030128118E0
1.221112196E1,5.450679706E0,-9.636953992E-1,4.580067595E0,7.184402359E0
1.222113396E1,5.594192598E0,-7.836701542E-1,4.002166514E0,6.922894376E0
1.223114596E1,5.329757532E0,-2.023668712E-1,3.409348017E0,6.330159683E0
1.224115796E1,4.865141870E0,5.904600227E-1,2.736513590E0,5.613087838E0
1.225116896E1,4.430552537E0,1.227605385E0,1.828872231E0,4.947886862E0
1.226118096E1,4.028350346E0,1.311283718E0,9.267208233E-1,4.336575029E0
1.227119296E1,3.578217067E0,1.226638840E0,-2.699577606E-1,3.792249651E0
1.228120496E1,3.399082938E0,1.198160561E0,-1.394603033E0,3.864488474E0
1.229121596E1,2.500383434E0,1.009385542E0,-2.031078596E0,3.375804608E0
1.230122796E1,1.856426358E0,1.254812479E0,-2.755802093E0,3.551804943E0
1.231123996E1,1.454076233E0,1.515426974E0,-2.805967402E0,3.504897954E0
1.232125196E1,9.325684775E-1,1.772769367E0,-2.353324498E0,3.090393403E0
1.233126296E1,4.046749780E-1,2.055633101E0,-1.856975119E0,2.799597449E0
1.234127496E1,1.729566190E-1,2.478021927E0,-1.503192552E0,2.903462504E0
1.235128696E1,-3.216203228E-1,2.691763971E0,-1.483312604E0,3.090185947E0
1.236129896E1,-7.482679678E-1,2.942586134E0,-6.630055502E-1,3.107779668E0
1.237131096E1,4.677427536E-1,2.433664949E0,6.187910689E0,6.665714295E0
1.238132196E1,3.531420046E0,7.327987933E-1,1.350143963E1,1.397486292E1
1.239133396E1,3.733933390E0,-3.377772760E-1,1.009263803E1,1.076650800E1
1.240134596E1,2.987390716E0,1.498641372E-1,4.940783790E0,5.775665071E0
1.241135796E1,2.262338899E0,1.052556120E0,1.405657487E0,2.863900251E0
1.242136896E1,1.161993485E0,1.513101536E0,-1.354568463E0,2.339777947E0
1.243138096E1,4.273551580E-1,1.592359959E0,-3.188662989E0,3.589681647E0
1.244139296E1,1.030592224E-1,1.724676018E0,-3.582023020E0,3.976935690E0
1.245140496E1,-2.148880988E-2,1.747957292E0,-2.415739725E0,2.981881097E0
1.246141596E1,1.983249834E-1,1.267023219E0,-1.191363173E0,1.750436188E0
1.247142796E1,3.160315176E-1,7.312948895E-1,-5.891152362E-1,9.908203152E-1
1.248143996E1,3.241108347E-1,2.311831194E-1,-8.280873585E-1,9.188156187E-1
1.249145196E1,1.464659913E-1,-1.074583751E-1,-1.747628678E0,1.757044560E0
1.250146296E1,1.595722693E-1,2.260299683E-1,-3.837864432E0,3.847824873E0
1.251147496E1,1.404743859E-1,4.645361406E-1,-5.853713078E0,5.873796360E0
1.252148696E1,-4.517807320E-1,1.539209354E-1,-6.476728644E0,6.494290678E0
1.253149896E1,-2.141904675E0,-3.237153071E-1,-5.686416637E0,6.085053937E0
1.254150996E1,-3.888600138E0,4.601676857E-1,-5.283685566E0,6.576495913E0
1.255152196E1,-4.162162707E0,2.794610063E0,-5.997477985E0,7.816852690E0
1.256153396E1,-2.379620012E0,3.970172889E0,-7.386188779E0,8.716687952E0
1.257154596E1,-4.309806510E-1,3.290250467E0,-8.141765401E0,8.792032546E0
1.258155696E1,1.180791626E0,2.018570525E0,-8.278033007E0,8.602018734E0
1.259156896E1,2.169638312E0,7.967264020E-1,-8.048136860E0,8.373446738E0
1.260158096E1,2.386298117E0,-1.659094816E-1,-7.466568698E0,7.840382184E0
1.261159296E1,2.105574170E0,-9.975303125E-1,-6.501009791E0,6.905913236E0
1.262160396E1,1.367492710E0,-1.522655302E0,-5.580362763E0,5.943817296E0
1.263161596E1,4.663247307E-1,-1.327358884E0,-5.336294720E0,5.518639479E0
1.264162796E1,-7.750890729E-1,-1.988521099E-1,-5.877928737E0,5.932145605E0
1.265163996E1,-1.920856242E0,9.970403159E-1,-6.732860663E0,7.072141882E0
1.266165096E1,-2.658833622E0,1.762273614E0,-6.973514518E0,7.668435906E0
1.267166296E1,-3.343238812E0,1.979634501E0,-6.005376989E0,7.152674415E0
1.268167496E1,-3.603413304E0,1.476887391E0,-4.647446523E0,6.063377193E0
1.269168696E1,-2.833763604E0,7.071306860E-1,-3.091952673E0,4.253283591E0
1.270169796E1,-1.504245636E0,-1.238954830E-1,-9.336437074E-1,1.774766349E0
1.271170996E1,2.698247730E-1,-1.739306336E0,9.543382461E-1,2.002187161E0
1.272172196E1,2.784304053E0,-5.072667739E0,3.021000220E0,6.527690968E0
1.273173396E1,4.767940680E0,-8.860173027E0,4.710569555E0,1.110969801E1
1.274174596E1,6.138007042E0,-1.256935252E1,4.487457347E0,1.469016769E1
1.275175696E1,7.278694151E0,-1.566136250E1,2.631491750E0,1.746947088E1
1.276176896E1,8.744297000E0,-1.764534850E1,2.062129650E0,1.980084423E1
1.277178096E1,9.126737648E0,-1.756346643E1,2.754018107E0,1.998392626E1
1.278179296E1,7.181675979E0,-1.501047384E1,3.325648926E0,1.696911122E1
1.279180396E1,3.532771338E0,-1.010962302E1,3.912107991E0,1.140129554E1
1.280181596E1,1.212866893E0,-6.448376665E0,4.908950379E0,8.194534857E0
1.281182796E1,-1.260428437E0,-3.880761945E0,4.599567767E0,6.148578434E0
1.282183996E1,-4.455992895E0,-2.254947141E0,5.280512867E0,7.268044815E0
1.283185096E1,-6.013280085E0,-1.404288946E0,8.020167874E0,1.012198881E1
1.284186296E1,-7.123427771E0,-6.614428818E-1,1.062440137E1,1.280853755E1
1.285187496E1,-8.183710402E0,5.560795641E-1,1.041696437E1,1.325878905E1
1.286188696E1,-8.382954276E0,2.071922275E0,8.778939999E0,1.231408023E1
1.287189796E1,-7.830922154E0,3.761185216E0,7.251957757E0,1.131639286E1
1.288190996E1,-7.177911542E0,5.348111358E0,6.036212280E0,1.079632196E1
1.289192196E1,-6.385965824E0,6.529972805E0,5.250508465E0,1.053512902E1
1.290193396E1,-5.734799423E0,7.435585472E0,4.287709736E0,1.032280536E1
1.291194496E1,-4.720101393E0,7.748882795E0,3.277700003E0,9.647168447E0
1.292195696E1,-2.721443561E0,6.818747490E0,2.475206200E0,7.747787950E0
1.293196896E1,-7.819677374E-1,5.680953584E0,1.456677659E0,5.916638992E0
1.294198096E1,8.947760224E-1,4.748096400E0,9.173883748E-1,4.917991967E0
1.295199196E1,2.257918989E0,4.024689989E0,4.166500756E-1,4.633565037E0
1.296200396E1,3.427301893E0,3.627748246E0,2.566886741E-1,4.997283730E0
1.297201596E1,4.451108716E0,3.448362687E0,4.482884824E-1,5.648410093E0
1.298202796E1,5.250655230E0,3.492329655E0,6.383148050E-1,6.338232605E0
1.299203896E1,5.830955130E0,3.462211817E0,7.641369456E-1,6.824284114E0
1.300205096E1,6.101181863E0,3.366567156E0,9.868837023E-1,7.037906932E0
1.301206296E1,5.595257376E0,3.079196972E0,1.478126416E0,6.555396006E0
1.302207496E1,3.544676561E0,2.986477674E0,1.678550257E0,4.929636070E0
1.303208596E1,8.659492493E-1,2.722537867E0,1.687856101E0,3.318273461E0
1.304209796E1,-1.429671709E0,2.455758069E0,1.671465771E0,3.296741832E0
1.305210996E1,-3.345684410E0,2.146106485E0,1.360596212E0,4.201261628E0
1.306212196E1,-4.964387246E0,1.533622339E0,1.028074413E0,5.296609784E0
1.307213296E1,-6.366225623E0,6.794675088E-1,4.025720268E-1,6.415026814E0
1.308214496E1,-7.006488136E0,-3.857197666E-1,-1.596652400E-1,7.018913643E0
1.309215696E1,-6.827444639E0,-2.065679787E0,-1.052643536E0,7.210346156E0
1.310216896E1,-5.981984033E0,-4.540782784E0,-2.446664479E0,7.898671302E0
1.311217996E1,-5.750058902E0,-6.740955548E0,-3.803428425E0,9.642081044E0
1.312219196E1,-5.356250682E0,-8.197329152E0,-5.021223936E0,1.100446802E1
1.313220396E1,-3.722556170E0,-8.254474576E0,-5.993066261E0,1.085866558E1
1.314221596E1,-9.117727089E-1,-6.308037057E0,-5.762726895E0,8.592536427E0
1.315222696E1,1.316661110E0,-3.559086147E0,-6.067597795E0,7.156565774E0
1.316223896E1,2.611387560E0,-1.591117426E0,-7.576070091E0,8.169934986E0
1.317225158E1,3.244898293E0,-1.312222781E0,-8.155439115E0,8.874822855E0
1.318226358E1,2.736410387E0,-3.427797444E0,-6.372300296E0,7.735887033E0
1.319227458E1,1.248220620E0,-4.862516470E0,-4.031460772E0,6.438539982E0
1.320228658E1,-3.177981441E-1,-3.784920818E0,-2.381841369E0,4.483278886E0
1.321229858E1,-1.373700991E0,-4.238961207E0,-1.118772037E0,4.594289651E0
1.322231058E1,-2.146516374E0,-6.124377767E0,8.679525054E-1,6.547432866E0
1.323232158E1,-1.971043479E0,-7.506619787E0,3.259762208E0,8.417862120E0
1.324233358E1,-7.318291057E-1,-7.806328180E0,5.148963379E0,9.380093676E0
1.325234558E1,1.067314346E0,-6.351474853E0,6.097005782E0,8.868701834E0
1.326235758E1,2.610991119E0,-3.556967701E0,6.399761159E0,7.773431465E0
1.327236958E1,3.163305661E0,-1.369368204E0,6.302155927E0,7.183233347E0
1.328238058E1,3.313518292E0,-3.304489607E-1,5.958793391E0,6.826112998E0
1.329239258E1,3.644411641E0,7.057016265E-1,5.464537607E0,6.606127630E0
1.330240458E1,4.249915965E0,1.820697239E0,4.719266703E0,6.606678618E0
1.331241658E1,5.445016093E0,2.424113522E0,3.764033979E0,7.049289214E0
1.332242758E1,6.149377538E0,2.363710030E0,2.715463321E0,7.125707702E0
1.333243958E1,6.827617131E0,1.912603190E0,2.085851220E0,7.390885060E0
1.334245158E1,6.955038486E0,1.155741350E0,1.858865816E0,7.291342848E0
1.335246358E1,6.451469842E0,2.468741226E-1,1.344857554E0,6.594774582E0
1.336247458E1,5.426041878E0,-2.405696547E-1,7.911867499E-2,5.431948452E0
1.337248658E1,3.993484569E0,1.702709198E-1,-1.691409746E0,4.340250928E0
1.338249858E1,2.507106270E0,8.360085815E-1,-2.378685627E0,3.555648676E0
1.339251058E1,1.397994126E0,1.672052246E0,-2.376682371E0,3.224711674E0
1.340252158E1,4.251709306E-1,2.619114071E0,-1.681586716E0,3.141379111E0
1.341253358E1,-3.649764767E-1,3.518714046E0,-1.442192352E0,3.820271607E0
1.342254558E1,-1.361595208E0,3.996960738E0,-1.214113227E0,4.393598478E0
1.343255758E1,-1.993007083E0,4.214602876E0,-6.870773676E-1,4.712433548E0
1.344256858E1,-1.354629420E0,3.696267673E0,2.770367799E0,4.813767061E0
1.345258058E1,2.877411534E-1,2.238230537E0,7.352453853E0,7.690971887E0
1.346259258E1,5.926907355E-1,1.176912364E0,6.692794372E0,6.821282982E0
1.347260458E1,5.103710023E-1,8.606160039E-1,3.782685428E0,3.912780023E0
1.348261558E1,3.907697144E-1,5.285432714E-1,9.940848407E-1,1.191748140E0
1.349262758E1,-1.076016319E-1,9.252458632E-2,-1.163485695E0,1.172108302E0
1.350263958E1,-3.161855552E-1,-5.364422750E-1,-1.600270658E0,1.717151652E0
1.351265158E1,-6.907403558E-2,-8.742598969E-1,-1.058894502E0,1.374903326E0
1.352266258E1,1.022055472E-1,-3.267529356E-1,-5.688862820E-1,6.639616380E-1
1.353267458E1,3.212173766E-1,4.088741559E-1,-1.258799549E-1,5.349807860E-1
1.354268658E1,1.041675621E0,5.215342140E-1,-1.444028378E-1,1.173856131E0
1.355269858E1,1.282348187E0,5.344039357E-1,-7.826685993E-1,1.594545257E0
1.356270958E1,9.555239153E-1,4.782665724E-1,-2.547240096E0,2.762281118E0
1.357272158E1,3.036377227E-1,4.375635195E-1,-5.079404901E0,5.107250909E0
1.358273358E1,-1.082747853E0,3.708959055E-1,-7.110381464E0,7.201904696E0
1.359274558E1,-2.461441855E0,4.827437854E-1,-7.387132519E0,7.801375803E0
1.360275658E1,-3.360678718E0,5.656450242E-1,-6.761433667E0,7.571730381E0
1.361276858E1,-4.066598153E0,4.639578509E-1,-6.028746555E0,7.286855457E0
1.362278058E1,-3.766335151E0,9.817673886E-1,-5.665260826E0,6.873450946E0
1.363279258E1,-2.148406487E0,1.687811662E0,-6.417437292E0,6.974801792E0
1.364280358E1,-4.613429030E-1,1.560676237E0,-7.199034024E0,7.380693630E0
1.365281558E1,4.013923511E-1,5.247297174E-1,-7.617023404E0,7.645619833E0
1.366282758E1,9.338588119E-1,-6.225852102E-1,-7.662071523E0,7.743839141E0
1.367283958E1,7.828190920E-1,-8.508125621E-1,-6.993078132E0,7.088006031E0
1.368285058E1,2.825748094E-1,-4.411338294E-1,-6.018573570E0,6.041330598E0
1.369286258E1,-2.287489966E-1,5.481969327E-1,-5.941843482E0,5.971461291E0
1.370287458E1,-5.230937761E-1,1.747701768E0,-6.834668874E0,7.073951313E0
1.371288658E1,-8.811403155E-1,2.868720598E0,-7.769618191E0,8.329041539E0
1.372289758E1,-1.433005791E0,3.537344445E0,-7.995459294E0,8.859665944E0
1.373290958E1,-1.806851617E0,3.558860444E0,-6.938572142E0,8.004622651E0
1.374292158E1,-1.752747623E0,3.029380449E0,-4.915577613E0,6.034250028E0
1.375293358E1,-1.662270439E0,2.066090847E0,-3.028446064E0,4.025339733E0
1.376294458E1,-1.502318101E0,-3.172827852E-1,-1.900401220E0,2.443184979E0
1.377295658E1,4.069589004E-1,-3.254652618E0,-1.390657332E0,3.562626423E0
1.378296858E1,3.132310156E0,-5.769228998E0,1.661424347E0,6.771683765E0
1.379298058E1,4.774408286E0,-9.511675057E0,4.853007728E0,1.169694921E1
1.380299158E1,5.316567383E0,-1.337828908E1,4.716309766E0,1.514886416E1
1.381300358E1,5.394589705E0,-1.635467855E1,2.937004967E0,1.747006316E1
1.382301558E1,5.784048766E0,-1.787244617E1,2.144705784E0,1.890712339E1
1.383302758E1,6.194156685E0,-1.781719933E1,2.446071279E0,1.902113125E1
1.384303858E1,3.866740030E0,-1.434129158E1,3.583656439E0,1.527962422E1
1.385305058E1,9.449229133E-1,-9.744239874E0,5.438765420E0,1.119925262E1
1.386306258E1,-9.283770472E-1,-6.894540854E0,6.965185159E0,9.844307077E0
1.387307458E1,-2.634828171E0,-4.670692713E0,8.908941144E0,1.039840960E1
1.388308558E1,-4.726630102E0,-2.526252100E0,1.148823041E1,1.267684582E1
1.389309758E1,-7.523760315E0,-6.499291295E-1,1.295744743E1,1.499749382E1
1.390310958E1,-8.526640245E0,7.121633846E-1,1.088067313E1,1.384195862E1
1.391312158E1,-8.230819665E0,2.271495931E0,8.015842688E0,1.171152510E1
1.392313258E1,-7.768232986E0,3.709982902E0,6.128429303E0,1.056726372E1
1.393314458E1,-7.250981857E0,5.033080920E0,5.060614289E0,1.017440212E1
1.394315658E1,-6.547555382E0,6.350158060E0,4.058169976E0,9.983172463E0
1.395316858E1,-6.042594516E0,7.247520890E0,2.886980283E0,9.867834752E0
1.396317958E1,-5.215347987E0,7.981910711E0,1.397621951E0,9.636602116E0
1.397319158E1,-3.222260505E0,8.040127929E0,2.896979606E-1,8.666633994E0
1.398320358E1,-5.592984563E-1,7.002187509E0,-2.163732916E-1,7.027820578E0
1.399321558E1,1.585604379E0,5.723498510E0,-4.136811519E-1,5.953461895E0
1.400322658E1,3.241163676E0,4.753326150E0,-7.638685584E-2,5.753701975E0
1.401323858E1,4.475493944E0,4.007351241E0,3.260363594E-1,6.016245483E0
1.402325058E1,5.521690632E0,3.519593468E0,7.049064052E-1,6.585855955E0
1.403326258E1,6.202392488E0,3.045256809E0,1.069777924E0,6.991972999E0
1.404327358E1,6.430644983E0,2.483885515E0,1.616939315E0,7.080775021E0
1.405328558E1,6.600406026E0,2.011374941E0,2.101940126E0,7.213122843E0
1.406329758E1,6.561643664E0,1.431503057E0,2.624357854E0,7.210521667E0
1.407330958E1,6.063221154E0,1.035751807E0,3.259279520E0,6.961202163E0
1.408332058E1,4.124323620E0,8.357191443E-1,3.698156616E0,5.602216898E0
1.409333258E1,1.264705676E0,7.131270057E-1,3.693716533E0,3.968825065E0
1.410334458E1,-1.263221360E0,8.009533542E-1,2.928223034E0,3.288121746E0
1.411335658E1,-3.418921079E0,9.297569901E-1,1.636367274E0,3.902712808E0
1.412336758E1,-5.012897501E0,7.333648038E-1,2.349086729E-1,5.071700639E0
1.413337958E1,-6.395737106E0,4.449497223E-2,-1.641853716E0,6.603265598E0
1.414339158E1,-7.213659664E0,-1.004452246E0,-3.525261174E0,8.091555871E0
1.415340358E1,-6.911364462E0,-2.713248396E0,-4.550855783E0,8.708556938E0
1.416341458E1,-6.223950588E0,-4.672442200E0,-4.856195630E0,9.173435181E0
1.417342642E1,-5.204107885E0,-6.207091895E0,-4.212442037E0,9.129917666E0
1.418343842E1,-4.830964017E0,-6.530711308E0,-4.192339310E0,9.141340843E0
1.419345042E1,-3.463692917E0,-5.213715445E0,-3.641938561E0,7.241803218E0
1.420346142E1,-1.903260801E0,-3.891420835E0,-3.622692451E0,5.647075206E0
1.421347342E1,-9.577977513E-1,-3.279138418E0,-5.901955531E0,6.819325802E0
1.422348542E1,-2.468279296E-1,-3.536299548E0,-7.343273724E0,8.154140513E0
1.423349742E1,-4.665417355E-1,-5.409214761E0,-6.110803456E0,8.174300240E0
1.424350842E1,-1.409718086E0,-6.696662305E0,-4.641297298E0,8.268871248E0
1.425352042E1,-1.095456191E0,-6.268355513E0,-3.041197380E0,7.052743197E0
1.426353242E1,-4.712091292E-1,-5.725913410E0,-4.512945360E-1,5.762967046E0
1.427354442E1,-3.779668703E-1,-5.701755053E0,2.675190331E0,6.309478025E0
1.428355542E1,-2.002713753E-1,-5.463694439E0,4.693755886E0,7.205790024E0
1.429356742E1,8.528569680E-1,-4.190404174E0,5.430150132E0,6.911829179E0
1.430357942E1,1.925504779E0,-2.819154920E0,5.889269997E0,6.807253794E0
1.431359142E1,2.534275065E0,-2.272900432E0,6.811605116E0,7.614892694E0
1.432360242E1,3.282816609E0,-1.900913436E0,7.140792832E0,8.085869097E0
1.433361442E1,3.803189274E0,-1.774440501E0,6.805356197E0,7.995358698E0
1.434362642E1,4.129959751E0,-1.286449424E0,6.456620069E0,7.771709103E0
1.435363842E1,4.712029020E0,-3.509773654E-1,5.163641059E0,6.999256502E0
1.436364942E1,5.368313488E0,2.997200882E-1,3.558471897E0,6.447584360E0
1.437366142E1,5.617079769E0,3.015982139E-1,2.489464928E0,6.151421157E0
1.438367342E1,5.734529282E0,-1.292860311E-1,9.238194349E-1,5.809903899E0
1.439368542E1,5.639116756E0,-7.887408596E-1,-5.822537479E-1,5.723702417E0
1.440369642E1,4.886456433E0,-9.663032573E-1,-2.036727884E0,5.381399346E0
1.441370842E1,4.419165376E0,-1.942035735E-1,-3.206094123E0,5.463128882E0
1.442372042E1,3.506944771E0,1.010451490E0,-3.207180244E0,4.858567583E0
1.443373242E1,2.273191770E0,1.968096775E0,-2.473976823E0,3.893760016E0
1.444374342E1,1.390319948E0,2.882844547E0,-2.244582367E0,3.909211204E0
1.445375542E1,7.560756817E-1,3.719277052E0,-1.991626555E0,4.286169451E0
1.446376742E1,6.152283166E-1,4.319561566E0,-1.696150815E0,4.681244022E0
1.447377942E1,9.179313619E-1,4.682325749E0,-1.435791843E0,4.982797469E0
1.448379042E1,9.033478213E-1,4.723125865E0,-4.356267755E-1,4.828428928E0
1.449380242E1,2.199901746E0,4.038842005E0,3.797554897E0,5.964330275E0
1.450381442E1,4.509485855E0,2.537274102E0,9.329839514E0,1.066860478E1
1.451382642E1,3.909412133E0,1.679829628E0,6.918375274E0,8.122145482E0
1.452383742E1,2.763387978E0,1.435693172E0,2.943460293E0,4.285030513E0
1.453384942E1,1.400811607E0,1.162246962E0,5.675306050E-1,1.906615364E0
1.454386142E1,6.264005184E-2,1.030560064E0,-3.657924557E-1,1.095345581E0
1.455387342E1,-5.565397765E-1,1.620784444E0,-1.051846414E0,2.010736088E0
1.456388442E1,-5.012961236E-1,1.765712362E0,-2.260884404E0,2.912153196E0
1.457389642E1,-6.505846024E-1,1.950317731E0,-3.622940665E0,4.165657048E0
1.458390842E1,-1.067402785E0,1.904325871E0,-4.900604063E0,5.364860289E0
1.459392042E1,-1.741897237E0,1.460876545E0,-5.169821566E0,5.647603146E0
1.460393142E1,-1.997430502E0,2.118212342E-2,-4.232245095E0,4.679965367E0
1.461394342E1,-2.405346006E0,-1.041927052E0,-3.137997158E0,4.088805150E0
1.462395542E1,-2.622862429E0,-1.356864519E0,-2.443266077E0,3.832758506E0
1.463396742E1,-2.413200571E0,-1.264583176E0,-2.368808802E0,3.610257989E0
1.464397842E1,-2.533756417E0,-9.733345342E-1,-3.072720596E0,4.099867505E0
1.465399042E1,-2.789810961E0,9.047455251E-2,-4.197060059E0,5.040490451E0
1.466400242E1,-2.136812920E0,1.262075890E0,-5.674521646E0,6.193464372E0
1.467401442E1,-9.798284519E-1,1.717441258E0,-6.835854689E0,7.116078808E0
1.468402542E1,-1.496179694E-1,1.710156212E0,-7.822072978E0,8.008236103E0
1.469403742E1,1.893486303E-1,1.154797025E0,-8.409947362E0,8.490973072E0
1.470404942E1,5.764065322E-1,1.487818176E-1,-8.725551412E0,8.745834892E0
1.471406142E1,9.489911136E-1,-7.035679775E-1,-8.524818252E0,8.606283650E0
1.472407242E1,1.043594093E0,-1.240031887E0,-8.007128583E0,8.169508911E0
1.473408442E1,7.129045191E-1,-1.345028000E0,-7.276542376E0,7.434070360E0
1.474409642E1,1.892498306E-1,-7.614162362E-1,-6.565349629E0,6.612063667E0
1.475410842E1,-2.224654873E-1,1.282920045E-1,-6.246382846E0,6.251659651E0
1.476411942E1,-9.111154819E-1,8.948321557E-1,-6.209833070E0,6.339785703E0
1.477413142E1,-1.539201460E0,1.554339024E0,-6.171171280E0,6.547401462E0
1.478414342E1,-2.031422413E0,1.848687276E0,-5.327704575E0,5.994060202E0
1.479415542E1,-2.273897383E0,1.660670641E0,-3.680787170E0,4.634288562E0
1.480416642E1,-2.165799322E0,9.342441434E-1,-2.447995305E0,3.399438165E0
1.481417842E1,-1.545409157E0,-4.014300656E-1,-1.321849637E0,2.072853594E0
1.482419042E1,3.773219224E-1,-2.436607268E0,1.668559997E-1,2.471288679E0
1.483420242E1,3.142386078E0,-5.086986401E0,7.975353643E-2,5.979831229E0
1.484421342E1,5.903562346E0,-7.170421844E0,9.065100686E-1,9.332135784E0
1.485422542E1,6.824839704E0,-9.710066991E0,4.103349365E0,1.255791838E1
1.486423742E1,7.038296989E0,-1.188167552E1,3.074060778E0,1.414785098E1
1.487424842E1,6.943176239E0,-1.422849061E1,2.207068678E0,1.598526801E1
1.488426042E1,7.468704101E0,-1.553095672E1,2.695390999E0,1.744297252E1
1.489427242E1,6.650935909E0,-1.513906698E1,3.294057297E0,1.686051929E1
1.490428442E1,3.293147762E0,-1.199594181E1,4.155106287E0,1.311534789E1
1.491429542E1,6.949728629E-1,-8.443933718E0,6.173950462E0,1.048335196E1
1.492430742E1,-2.015524710E0,-6.049564397E0,7.900665404E0,1.015283621E1
1.493431942E1,-5.547769214E0,-4.322861150E0,1.195015577E1,1.386618530E1
1.494433142E1,-8.710088450E0,-2.905180326E0,1.437075103E1,1.705356850E1
1.495434242E1,-9.305070124E0,-9.851084876E-1,1.211823165E1,1.531033334E1
1.496435442E1,-8.476089311E0,1.226697312E0,8.595727437E0,1.213405977E1
1.497436642E1,-8.155827370E0,2.833095852E0,6.028792748E0,1.053044606E1
1.498437842E1,-7.791213128E0,4.406947035E0,4.884744076E0,1.019729910E1
1.499438942E1,-7.222505332E0,6.106539667E0,4.088260918E0,1.030379965E1
1.500440142E1,-6.724848223E0,7.495675553E0,3.135198680E0,1.054695247E1
1.501441342E1,-6.107369971E0,8.332077652E0,1.627109377E0,1.045805770E1
1.502442542E1,-4.817649907E0,8.651042097E0,-1.232900038E-1,9.902801645E0
1.503443642E1,-1.864596380E0,7.944879709E0,-1.178746635E0,8.245439763E0
1.504444842E1,1.597854003E0,6.124319880E0,-3.304162163E-1,6.337949691E0
1.505446042E1,3.812761458E0,4.593532271E0,1.701329255E-1,5.972154877E0
1.506447242E1,5.095094150E0,3.857197666E0,-2.478085077E-1,6.395261315E0
1.507448342E1,6.204941289E0,3.501836643E0,-4.746693653E-1,7.140690953E0
1.508449542E1,7.197308511E0,3.382253482E0,8.985591710E-2,7.952921633E0
1.509450742E1,7.905275348E0,3.133369086E0,1.046979046E0,8.567820335E0
1.510451942E1,8.107224144E0,2.756081589E0,2.140772654E0,8.826436235E0
1.511453042E1,7.708926432E0,2.244362512E0,3.178091223E0,8.635101252E0
1.512454242E1,6.018568892E0,1.872186066E0,3.656483218E0,7.286845799E0
1.513455442E1,2.575037175E0,1.524771994E0,2.839426924E0,4.125298940E0
1.514456642E1,-5.919723319E-1,8.847065324E-1,1.669703420E0,1.980163226E0
1.515457742E1,-3.055830329E0,2.732848263E-1,9.321704283E-1,3.206512951E0
1.516458942E1,-5.061248712E0,-4.294136703E-1,4.014511156E-1,5.095272085E0
1.517460108E1,-6.767591370E0,-1.442642003E0,-1.698472890E-1,6.921730780E0
1.518461308E1,-8.351862291E0,-2.585484980E0,-1.397582189E0,8.853901529E0
1.519462408E1,-8.619861234E0,-3.823776151E0,-2.329594743E0,9.713407405E0
1.520463608E1,-7.772487420E0,-4.803500522E0,-2.422486242E0,9.452704246E0
1.521464808E1,-6.098532490E0,-5.234801674E0,-1.802162150E0,8.236688382E0
1.522466008E1,-3.946669421E0,-4.800800863E0,-1.577113052E0,6.411799593E0
1.523467108E1,-1.895223072E0,-4.116981272E0,-2.037692967E0,4.969265329E0
1.524468308E1,-5.089633582E-1,-3.173950517E0,-2.765018766E0,4.240086599E0
1.525469508E1,2.274935994E-1,-2.267345577E0,-4.249566594E0,4.821973200E0
1.526470708E1,8.059017067E-1,-1.578501474E0,-6.662233315E0,6.893946417E0
1.527471808E1,1.283202758E0,-1.306322356E0,-9.017412257E0,9.201457017E0
1.528473008E1,1.201638192E0,-1.242639161E0,-9.277925595E0,9.437583895E0
1.529474208E1,1.160576486E0,-1.099563641E0,-6.128088995E0,6.333202406E0
1.530475408E1,1.469859184E-1,-1.894151716E0,-2.709057989E0,3.308838281E0
1.531476508E1,-9.617716652E-1,-3.366898109E0,-6.856830990E-1,3.568076362E0
1.532477708E1,-1.517845236E0,-4.357744469E0,1.195664092E0,4.766907136E0
1.533478908E1,-2.396264550E0,-5.528779796E0,2.947860323E0,6.708156998E0
1.534480108E1,-2.511900402E0,-7.143212410E0,4.070484797E0,8.596742037E0
1.535481208E1,-1.429497608E0,-7.884762146E0,5.134749382E0,9.517278431E0
1.536482408E1,3.636463813E-1,-7.030530717E0,6.330816640E0,9.467831863E0
1.537483608E1,2.568560799E0,-4.150624981E0,7.291610066E0,8.774552391E0
1.538484808E1,4.158927442E0,-1.412173331E0,7.064788384E0,8.318782718E0
1.539485908E1,5.009923022E0,3.298209697E-1,6.487097511E0,8.203081414E0
1.540487108E1,5.174718025E0,1.231646395E0,5.560199810E0,7.694834722E0
1.541488308E1,5.332060751E0,1.758313880E0,4.217051397E0,7.021827543E0
1.542489508E1,5.504336096E0,1.675761135E0,2.864884532E0,6.427554327E0
1.543490608E1,5.816920643E0,9.575213242E-1,1.065900928E0,5.990789401E0
1.544491808E1,6.033923095E0,-5.331573093E-1,-3.516179278E-1,6.067628845E0
1.545493008E1,5.912766448E0,-1.837396887E0,-7.318211389E-1,6.234773177E0
1.546494208E1,4.579939249E0,-2.193229195E0,-1.294524721E0,5.240409533E0
1.547495308E1,2.897237468E0,-1.606666927E0,-1.873161674E0,3.805797974E0
1.548496508E1,1.175856941E0,-5.946396124E-1,-1.381016443E0,1.908780299E0
1.549497708E1,3.126792723E-1,8.422838134E-1,-8.771285409E-1,1.255613327E0
1.550498908E1,3.491929413E-1,2.262535658E0,-1.034970327E0,2.512402613E0
1.551500008E1,4.604734951E-1,3.646135401E0,-1.152142389E0,3.851463525E0
1.552501208E1,3.646844083E-1,4.428110447E0,-8.239592242E-1,4.518856675E0
1.553502408E1,5.273467849E-1,4.646947755E0,7.175118327E-3,4.676779827E0
1.554503508E1,2.629116903E0,4.199029986E0,4.918243359E0,6.980918725E0
1.555504708E1,4.500701290E0,2.801427332E0,9.113743966E0,1.054346415E1
1.556505908E1,4.014929232E0,1.878795758E0,7.074436875E0,8.348484134E0
1.557507108E1,3.407769561E0,1.762758933E0,3.003400100E0,4.872435182E0
1.558508308E1,2.469752795E0,1.512343737E0,-3.120623910E-1,2.912772799E0
1.559509408E1,1.555076358E0,9.853119707E-1,-1.893109596E0,2.640637443E0
1.560510608E1,5.234871840E-1,3.185744351E-1,-2.221641401E0,2.304608213E0
1.561511808E1,-1.746505026E-1,-1.852380377E-1,-1.771290167E0,1.789492885E0
1.562513008E1,-2.657085890E-1,3.128447485E-1,-1.270675975E0,1.335324052E0
1.563514108E1,3.174438760E-1,7.981004977E-1,-1.267290437E0,1.530934378E0
1.564515308E1,1.020396726E0,8.224295926E-1,-1.488587669E0,1.983303598E0
1.565516508E1,9.072878945E-1,8.433287108E-1,-2.292334238E0,2.605603749E0
1.566517608E1,-2.504405953E-1,8.958834851E-1,-3.587291361E0,3.705939425E0
1.567518808E1,-2.321458927E0,8.413546908E-1,-4.420960472E0,5.063787195E0
1.568520008E1,-4.183728992E0,5.641463828E-1,-3.957006129E0,5.786168588E0
1.569521208E1,-5.427406034E0,5.728008467E-1,-3.571937158E0,6.522543378E0
1.570522308E1,-5.450094985E0,1.148852745E0,-4.276603242E0,7.022302561E0
1.571523508E1,-3.845119073E0,1.939488688E0,-6.222737875E0,7.567629993E0
1.572524708E1,-1.467921562E0,2.203301609E0,-7.916639412E0,8.347605122E0
1.573525908E1,3.160943386E-1,1.116712940E0,-8.753817437E0,8.830418061E0
1.574527008E1,1.333452267E0,-5.612625360E-1,-8.713015566E0,8.832312881E0
1.575528208E1,1.148056647E0,-2.108157470E0,-8.346474082E0,8.684813849E0
1.576529408E1,7.329286015E-1,-3.023259584E0,-7.487862504E0,8.108351726E0
1.577530608E1,5.736141944E-1,-3.133211796E0,-6.556417422E0,7.289215240E0
1.578531708E1,-9.431631938E-3,-2.561435966E0,-5.980750855E0,6.506183517E0
1.579532908E1,-5.350602491E-1,-1.550840635E0,-6.065990396E0,6.283918811E0
1.580534108E1,-8.263767555E-1,-3.076641154E-1,-6.489218881E0,6.548856193E0
1.581535308E1,-1.279720156E0,8.979224092E-1,-6.783791081E0,6.961592473E0
1.582536408E1,-1.831273390E0,1.870562879E0,-6.650707868E0,7.147340964E0
1.583537608E1,-2.213061197E0,2.518724980E0,-5.705117787E0,6.617400120E0
1.584538808E1,-2.437096387E0,2.549156814E0,-4.183996210E0,5.472062093E0
1.585540008E1,-1.972520778E0,2.131010728E0,-2.684757253E0,3.954739745E0
1.586541108E1,-7.980870491E-1,1.448523132E0,-1.947150879E0,2.554713046E0
1.587542308E1,8.584002015E-1,3.573046374E-1,-9.676943099E-1,1.341994705E0
1.588543508E1,3.062400261E0,-1.233013474E0,2.497936374E0,4.139843441E0
1.589544708E1,4.706051119E0,-3.989538867E0,4.228245599E0,7.479398262E0
1.590545808E1,5.868071501E0,-7.024982879E0,4.324024161E0,1.012333110E1
1.591547008E1,7.090191028E0,-9.592554914E0,3.644141208E0,1.247267749E1
1.592548208E1,8.022225509E0,-1.194035818E1,2.067467866E0,1.453281387E1
1.593549408E1,8.770277349E0,-1.369172089E1,6.873899013E-1,1.627431997E1
1.594550508E1,8.903321385E0,-1.442552306E1,1.521838738E0,1.702001294E1
1.595551708E1,6.854675707E0,-1.312447080E1,2.496258515E0,1.501564582E1
1.596552908E1,2.358154883E0,-1.018339851E1,2.739174658E0,1.080581221E1
1.597554108E1,-7.677315214E-1,-7.321270652E0,4.183809684E0,8.467271055E0
1.598555208E1,-3.973639703E0,-5.859282551E0,6.965112653E0,9.931455018E0
1.599556408E1,-7.288080686E0,-4.868219844E0,1.176731802E1,1.467260910E1
1.600557608E1,-9.751733081E0,-3.382506666E0,1.414929124E1,1.751399703E1
1.601558808E1,-1.057391300E1,-9.496743608E-1,1.177970593E1,1.585783684E1
1.602559908E1,-1.055650934E1,1.236600156E0,7.234109716E0,1.285695971E1
1.603561108E1,-1.003896995E1,3.069775354E0,4.861237684E0,1.156875405E1
1.604562308E1,-8.928374366E0,5.111110259E0,4.356232964E0,1.117211182E1
1.605563508E1,-7.902820103E0,6.760608625E0,4.067469096E0,1.116712583E1
1.606564608E1,-7.116784750E0,7.913213528E0,2.905045255E0,1.103208328E1
1.607565808E1,-6.343553045E0,8.391265508E0,1.247322780E0,1.059291349E1
1.608567008E1,-4.056434523E0,8.018487968E0,7.081650585E-1,9.014006217E0
1.609568208E1,-7.501132759E-1,6.321056467E0,9.621479335E-1,6.437713370E0
1.610569308E1,1.383322292E0,4.495451660E0,7.546135855E-1,4.763623396E0
1.611570508E1,2.816093026E0,3.200723748E0,6.414302015E-1,4.311199966E0
1.612571708E1,4.028418174E0,2.423915302E0,7.865323663E-1,4.766775801E0
1.613572908E1,4.933700473E0,1.868606985E0,1.110118450E0,5.391238763E0
1.614574008E1,5.891980766E0,1.577308057E0,1.399681340E0,6.257990565E0
1.615575208E1,6.726613498E0,1.268372172E0,1.706370432E0,7.054629485E0
1.616576408E1,7.372884024E0,1.039570624E0,2.151516036E0,7.750428838E0
1.617577629E1,7.420525968E0,6.365401751E-1,2.899774868E0,7.992376575E0
1.618578729E1,6.747795621E0,4.182174218E-1,3.769342082E0,7.740516216E0
1.619579929E1,4.060416477E0,1.029160241E0,3.665814205E0,5.566358464E0
1.620581129E1,4.546695123E-1,1.602689066E0,2.431523114E0,2.947480494E0
1.621582229E1,-2.279083571E0,1.835691254E0,1.158459136E0,3.147381749E0
1.622583429E1,-4.185245175E0,1.966392311E0,-7.584189534E-2,4.624794903E0
1.623584629E1,-5.820548256E0,1.930808496E0,-2.069181977E0,6.472118471E0
1.624585829E1,-6.668595085E0,1.641056741E0,-3.884108307E0,7.889836815E0
1.625586929E1,-6.655962176E0,-4.112639129E-2,-4.725931944E0,8.163207495E0
1.626588129E1,-5.471336165E0,-2.282133771E0,-4.613508991E0,7.511865227E0
1.627589329E1,-4.990240125E0,-3.880069635E0,-4.602243453E0,7.819084452E0
1.628590529E1,-4.617768980E0,-4.889569198E0,-4.005777462E0,7.828022124E0
1.629591629E1,-4.208833428E0,-5.489001773E0,-3.952696439E0,7.966632188E0
1.630592829E1,-3.150899039E0,-5.387756649E0,-4.662399315E0,7.790638859E0
1.631594029E1,-1.432566665E0,-4.593441054E0,-5.647159016E0,7.419053371E0
1.632595229E1,2.580040053E-1,-3.578168535E0,-7.363168291E0,8.190610686E0
1.633596329E1,1.165664514E0,-3.009439105E0,-8.586831483E0,9.173285801E0
1.634597529E1,1.094143272E0,-2.710384430E0,-7.070227464E0,7.650584922E0
1.635598729E1,6.929055067E-1,-2.996582247E0,-3.092439454E0,4.361514070E0
1.636599929E1,-1.863121712E-1,-4.178720852E0,-3.179809427E-1,4.194941247E0
1.637601029E1,-5.395140367E-1,-5.740803929E0,9.109804112E-1,5.837618560E0
1.638602229E1,-8.461062113E-1,-7.200662473E0,2.820616724E0,7.779544619E0
1.639603429E1,-1.704495230E0,-8.411482256E0,4.927495993E0,9.896390983E0
1.640604629E1,-1.194716551E0,-8.278770341E0,6.036513412E0,1.031527412E1
1.641605729E1,7.368834389E-1,-6.071502566E0,7.229997954E0,9.469900265E0
1.642606929E1,2.512251527E0,-3.275585650E0,8.020968942E0,9.020909702E0
1.643608129E1,3.634795895E0,-1.454555120E0,8.184667591E0,9.072830616E0
1.644609329E1,4.269633361E0,-8.748492962E-1,7.993876453E0,9.104789458E0
1.645610429E1,4.708868015E0,-6.451782668E-1,6.805605288E0,8.300961168E0
1.646611629E1,4.809104494E0,-4.382675242E-1,5.251715915E0,7.134429515E0
1.647612829E1,4.946861386E0,-8.052317619E-2,3.210446498E0,5.897871504E0
1.648614029E1,5.053989394E0,2.185455322E-2,1.421310775E0,5.250086736E0
1.649615129E1,4.876016521E0,-2.517413449E-1,2.654130122E-1,4.889719306E0
1.650616329E1,4.218391287E0,-7.298927271E-1,-1.093992999E0,4.418641095E0
1.651617529E1,3.910156483E0,-5.498207045E-1,-2.373148898E0,4.606892903E0
1.652618729E1,3.242611155E0,2.893874735E-1,-2.957421105E0,4.398250993E0
1.653619829E1,2.622957738E0,1.292917614E0,-3.551741459E0,4.600696757E0
1.654621029E1,2.436328063E0,2.204897899E0,-3.261970993E0,4.630088977E0
1.655622229E1,2.254488720E0,3.266499662E0,-2.377290335E0,4.626472605E0
1.656623429E1,2.148002006E0,4.203697819E0,-2.099080545E0,5.166345623E0
1.657624529E1,1.987127561E0,4.808567135E0,-1.584986328E0,5.439041781E0
1.658625729E1,1.529661582E0,5.116694934E0,-1.102828434E0,5.453133242E0
1.659626929E1,1.196161836E0,5.328058916E0,-6.051496902E-1,5.494107853E0
