Time (s),Linear Acceleration x (m/s^2),Linear Acceleration y (m/s^2),Linear Acceleration z (m/s^2),Absolute acceleration (m/s^2),Walking(0)/Jumping(1)
0.124,-0.312,-0.000957,-0.319,0.446,1
0.142,-0.00605,0.0497,-0.127,0.136,1
0.161,0.114,-0.107,-0.067,0.17,1
0.179,0.272,-0.0912,0.103,0.305,1
0.197,0.35,-0.0684,0.216,0.417,1
0.216,0.33,-0.135,0.225,0.422,1
0.234,0.261,-0.168,0.219,0.38,1
0.253,0.187,-0.125,0.257,0.342,1
0.271,0.18,-0.0302,0.272,0.328,1
0.29,0.0753,-0.0181,0.18,0.196,1
0.308,-0.0183,0.00279,0.133,0.135,1
0.326,-0.000304,0.0157,0.00505,0.0164,1
0.345,-0.0445,-0.0252,-0.0145,0.0531,1
0.363,-0.0467,-0.035,-0.0449,0.0736,1
0.382,-0.0529,-0.0276,-0.0687,0.091,1
0.4,-0.0159,-0.0602,-0.277,0.284,1
0.418,0.17,-0.0479,0.00111,0.177,1
0.437,0.444,-0.0961,-0.229,0.509,1
0.455,0.561,-0.0424,-0.242,0.613,1
0.474,0.331,0.198,0.397,0.553,1
0.492,0.173,0.243,-0.142,0.33,1
0.51,0.105,0.127,-0.45,0.48,1
0.529,0.195,-0.177,-0.78,0.823,1
0.547,-0.245,-0.825,-0.567,1.03,1
0.566,-0.457,0.68,0.931,1.24,1
0.584,0.747,1.28,-0.197,1.49,1
0.603,1.29,1.31,0.741,1.99,1
0.621,1.25,0.0768,2.1,2.44,1
0.639,0.8,-0.879,-0.118,1.19,1
0.658,0.701,-1.42,-0.479,1.65,1
0.676,1.03,-0.0863,-1.2944999999999998,3.14,1
0.695,1.33,0.424,-2.11,2.53,1
0.713,-0.72,0.696,0.23999999999999977,4.11,1
0.731,0.969,-1.09,2.59,2.97,1
0.75,-0.4455000000000001,-1.52,-2.42,4.23,1
0.768,-1.86,-0.7886666666666667,-0.369,4.42,1
0.787,-0.644,-0.05733333333333346,0.897,4.61,1
0.805,0.2380000000000001,0.674,0.8656666666666667,4.69,1
0.824,1.12,0.897,0.8343333333333334,4.68,1
0.842,0.9347500000000001,1.12,0.803,4.67,1
0.86,0.7495,2.35,-0.561,4.674411764705883,1
0.879,0.56425,-0.426,-0.7608333333333334,4.678823529411765,1
0.897,0.379,-0.5072631578947369,-0.9606666666666667,4.683235294117647,1
0.916,-0.6506666666666667,-0.5885263157894737,-1.1604999999999999,4.687647058823529,1
0.934,-1.6803333333333335,-0.6697894736842105,-1.3603333333333332,4.692058823529412,1
0.952,-2.71,-0.7510526315789474,-1.5601666666666665,4.696470588235294,1
0.971,-1.71,-0.8323157894736841,-1.76,4.700882352941177,1
0.989,-0.76,-0.913578947368421,0.471,4.705294117647059,1
1.01,-0.521,-0.994842105263158,0.856,4.709705882352941,1
1.03,-1.08,-1.0761052631578947,2.13,4.714117647058823,1
1.04,0.931,-1.1573684210526316,2.032833333333333,4.718529411764706,1
1.06,0.9281666666666667,-1.2386315789473683,1.9356666666666666,4.722941176470588,1
1.08,0.9253333333333333,-1.3198947368421052,1.8384999999999998,4.727352941176471,1
1.1,0.9225000000000001,-1.4011578947368422,1.7413333333333332,4.731764705882353,1
1.12,0.9196666666666667,-1.4824210526315789,1.6441666666666666,4.736176470588235,1
1.14,0.9168333333333334,-1.5636842105263158,1.547,4.740588235294117,1
1.16,0.914,-1.6449473684210525,1.4498333333333333,4.745,1
1.17,0.9111666666666667,-1.7262105263157894,1.3526666666666665,4.749411764705883,1
1.19,0.9083333333333333,-1.8074736842105263,1.2555,4.753823529411765,1
1.21,0.9055,-1.888736842105263,1.1583333333333332,4.758235294117648,1
1.23,0.9026666666666667,-1.97,1.0611666666666666,4.7626470588235295,1
1.25,0.8998333333333334,-0.671,0.964,4.767058823529412,1
1.27,0.897,0.218,0.8668333333333333,4.771470588235294,1
1.28,0.8941666666666667,1.88,0.7696666666666665,4.775882352941177,1
1.3,0.8913333333333333,1.8181818181818181,0.6724999999999999,4.780294117647059,1
1.32,0.8885000000000001,1.7563636363636363,0.5753333333333333,4.784705882352942,1
1.34,0.8856666666666667,1.6945454545454544,0.47816666666666663,4.7891176470588235,1
1.36,0.8828333333333334,1.6327272727272726,0.381,4.793529411764706,1
1.38,0.88,1.5709090909090908,-0.554,4.797941176470588,1
1.39,0.8771666666666667,1.509090909090909,1.0,4.802352941176471,1
1.41,0.8743333333333333,1.4472727272727273,0.3325,4.806764705882353,1
1.43,0.8714999999999999,1.3854545454545453,-0.33499999999999996,4.811176470588236,1
1.45,0.8686666666666667,1.3236363636363637,-1.0025,4.8155882352941175,1
1.47,0.8658333333333333,1.2618181818181817,-1.67,4.82,1
1.49,0.863,1.2,0.0665,1.48,1
1.5,-1.25,2.22,0.341,2.57,1
1.52,-2.72,2.2842857142857143,-0.25266666666666665,3.1799999999999997,1
1.54,-1.67,2.3485714285714288,-0.8463333333333334,3.79,1
1.56,-1.05,2.412857142857143,-1.44,4.4,1
1.58,-2.17,2.4771428571428573,-0.115,5.01,1
1.6,-2.06,2.5414285714285714,-0.132,3.55,1
1.62,-0.791,2.605714285714286,0.0919,2.92,1
1.63,0.255,2.67,-1.42,3.03,1
1.65,0.399,0.939,-1.58,1.88,1
1.67,0.864,1.06,-0.0825,1.37,1
1.69,0.471,-0.862,0.626,1.17,1
1.71,0.837,-2.03,-0.036,2.2,1
1.73,0.17,-1.92,-1.3,2.32,1
1.74,0.991,-2.025,-1.3966666666666667,3.98,1
1.76,0.609,-2.13,-1.4933333333333334,4.55,1
1.78,1.25,-2.235,-1.59,3.32,1
1.8,1.9,-2.34,-0.4900000000000002,3.8166666666666664,1
1.82,2.1525,-1.6749999999999998,0.6099999999999997,4.313333333333333,1
1.84,2.4050000000000002,-1.01,1.71,4.81,1
1.85,2.6575,-1.45,-2.07,4.67,1
1.87,2.91,-2.61,-1.97,4.38,1
1.89,1.45,-2.5933333333333333,-0.611,3.38,1
1.91,0.162,-2.5766666666666667,0.493,3.82,1
1.93,0.0574,-2.56,0.729,2.67,1
1.95,-2.04,-1.71,-0.0287,2.66,1
1.97,-1.7688000000000001,-1.98,0.715,4.26,1
1.98,-1.4976,1.79,-0.028749999999999942,4.4319999999999995,1
2.0,-1.2264,1.948,-0.7724999999999999,4.604,1
2.02,-0.9552,2.106,-1.5162499999999999,4.776,1
2.04,-0.684,2.2640000000000002,-2.26,4.948,1
2.06,-0.887,2.422,0.853,5.12,1
2.08,-0.43249999999999994,2.58,1.67,4.8,1
2.09,0.02200000000000013,1.61,1.08,4.28,1
2.11,0.47650000000000015,1.92,-1.32,4.46,1
2.13,0.9310000000000003,1.13,-1.245,4.77,1
2.15,1.3855000000000004,-0.688,-1.17,4.435,1
2.17,1.84,-0.7989999999999999,0.774,4.1,1
2.19,1.8775,-0.91,1.82,3.92,1
2.2,1.915,-1.3233333333333333,1.67,3.61,1
2.22,1.9525000000000001,-1.7366666666666666,1.1524999999999999,3.3000000000000003,1
2.24,1.99,-2.15,0.635,2.99,1
2.26,1.24,0.795,0.662,5.11,1
2.28,1.19,0.16125,0.6890000000000001,5.03,1
2.3,-0.414,-0.47250000000000003,0.716,4.95,1
2.32,1.39,-1.1062500000000002,0.743,4.87,1
2.33,1.31,-1.74,0.6703333333333333,4.876666666666667,1
2.35,-2.54,-1.4553333333333334,0.5976666666666667,4.883333333333333,1
2.37,-1.65,-1.1706666666666665,0.525,4.89,1
2.39,-0.925,-0.886,0.1736666666666667,4.88,1
2.41,-1.26,-0.15733333333333333,-0.17766666666666664,5.14,1
2.43,-0.157,0.5713333333333334,-0.529,3.735,1
2.44,1.68,1.3,0.968,2.33,1
2.46,0.171,0.08000000000000007,-0.445,2.68,1
2.48,-0.431,-1.14,-0.858,4.43,1
2.5,-0.353,-2.36,-0.878,2.54,1
2.52,-1.72,-1.57625,-1.35,3.0300000000000002,1
2.54,-1.74,-0.7925,-1.0353750000000002,3.52,1
2.55,2.03,-0.008750000000000036,-0.72075,4.01,1
2.57,-0.335,0.775,-0.40612499999999996,4.5,1
2.59,-0.0126,-0.919,-0.0915,0.923,1
2.61,0.478,-1.3,0.129,1.39,1
2.63,-0.544,-1.0,0.271,1.17,1
2.65,-0.604,-1.07,-0.773,1.45,1
2.67,0.869,-0.772,0.443,1.24,1
2.68,1.09,0.352,0.128,1.15,1
2.7,1.94,0.575,0.11,2.03,1
2.72,1.86,0.846,0.353,2.07,1
2.74,1.3,0.737,-0.269,1.52,1
2.76,1.13,-0.261,-0.648,1.33,1
2.78,1.04,-1.66,-0.327,1.99,1
2.79,1.05,-2.18,-0.31,2.43,1
2.81,0.878,-0.234,-0.632,1.11,1
2.83,-0.401,1.42,-0.527,1.57,1
2.85,-0.633,1.93,0.0137,2.03,1
2.87,-0.876,1.4,-0.217,1.66,1
2.89,-0.764,-0.118,-0.453,0.896,1
2.9,0.125,-0.603,-0.636,0.885,1
2.92,0.152,0.0588,-0.566,0.588,1
2.94,-0.329,2.14,-0.943,2.37,1
2.96,-1.35,2.1900000000000004,-1.01,4.54,1
2.98,0.0404,2.24,1.02,2.46,1
3.0,0.128,0.541,-1.44,1.54,1
3.02,0.337,2.03,0.458,2.11,1
3.03,0.0316,2.48,1.19,2.75,1
3.05,-0.0363,1.8599999999999999,1.69,3.5,1
3.07,-0.129,1.24,1.3599999999999999,2.99,1
3.09,-1.38,0.734,1.03,1.87,1
3.11,-0.68,-0.181,-1.06,1.28,1
3.13,0.363,-0.44,-0.171,0.596,1
3.14,1.56,-1.99,-1.65,3.02,1
3.16,-0.212,-0.53,-0.889,1.06,1
3.18,0.718,-1.83,1.43,2.43,1
3.2,2.15,-1.71,1.7199999999999998,4.13,1
3.22,2.85,-1.123,2.01,2.885,1
3.24,1.28,-0.536,-0.883,1.64,1
3.25,1.52,-0.368,-0.792,3.11,1
3.27,0.0864,-1.08,-0.701,3.3,1
3.29,-2.03,-1.5133333333333334,-0.61,4.22,1
3.31,-2.74,-1.9466666666666668,0.389,5.0,1
3.33,-1.44,-2.38,-0.273,2.79,1
3.35,-1.12,-0.896,0.0343,1.44,1
3.36,-0.615,0.166,0.0562,0.639,1
3.38,-1.11,0.755,0.112,1.35,1
3.4,-2.01,2.04,0.325,2.88,1
3.42,-1.96,1.8,0.76,4.31,1
3.44,-1.91,0.449,2.21,2.95,1
3.46,2.35,-0.746,0.829,2.6,1
3.48,1.83,-0.497,0.769,4.06,1
3.49,1.31,0.172,-0.147,1.33,1
3.51,-0.219,-0.866,-1.36,1.62,1
3.53,0.467,-0.272,-1.57,1.67,1
3.55,0.483,0.44,-0.383,0.757,1
3.57,0.164,0.5,-0.0774,0.532,1
3.59,-0.355,0.247,-0.37,0.57,1
3.6,0.00812,0.476,-0.267,0.546,1
3.62,0.432,0.682,-0.25,0.845,1
3.64,0.27,0.474,0.662,0.858,1
3.66,-0.504,-0.153,1.02,1.15,1
3.68,-0.574,-0.195,0.93,1.11,1
3.7,0.261,0.598,-0.00587,0.652,1
3.71,1.31,1.34,-1.44,2.36,1
3.73,1.63,1.7,-1.25,2.67,1
3.75,1.68,0.904,-0.545,1.98,1
3.77,1.09,0.386,0.0405,1.16,1
3.79,-0.689,-0.47,-1.21,1.47,1
3.81,-2.55,-1.13,-1.53,3.18,1
3.83,-2.625,-1.5,0.979,3.59,1
3.84,-2.7,-1.13,2.2,3.66,1
3.86,-2.01,1.24,1.0,2.56,1
3.88,-1.13,1.48,2.21,2.89,1
3.9,0.29,-0.859,1.62,2.93,1
3.92,2.4,-1.35,1.03,2.94,1
3.94,2.5033333333333334,-1.57,-0.381,4.29,1
3.95,2.6066666666666665,0.498,-0.827,4.49,1
3.97,2.71,2.07,-1.7,3.81,1
3.99,1.32,0.864,-1.7,2.31,1
4.01,0.16,-0.281,-1.278,2.71,1
4.03,-0.857,-0.589,-0.856,1.35,1
4.05,-0.61,-0.197,0.768,1.0,1
4.06,0.623,-0.601,-0.0724,0.869,1
4.08,1.21,-0.451,-0.785,1.51,1
4.1,0.814,0.226,-0.29,0.894,1
4.12,-0.72,0.583,-0.561,1.08,1
4.14,-1.62,0.512,-1.19,2.08,1
4.16,-1.98,-0.0533,-1.03,2.23,1
4.18,-1.83,-0.371,-0.643,1.97,1
4.19,-1.26,-0.321,-0.668,1.46,1
4.21,-0.65,-0.395,-0.79,1.1,1
4.23,-0.38,-0.613,-0.43,0.84,1
4.25,-0.185,-0.31,0.64,0.735,1
4.27,0.635,0.202,1.6,1.73,1
4.29,1.69,0.562,1.55,2.36,1
4.3,2.5,0.496,0.269,2.56,1
4.32,2.15,-0.0968,-1.21,2.47,1
4.34,-0.248,-1.01,-2.36,2.58,1
4.36,-3.0,-1.14,-2.56,4.1,1
4.38,-2.51,-0.165,-0.908,2.67,1
4.4,1.18,0.711,-1.69,2.18,1
4.41,1.2533333333333332,0.777,-1.01,2.7,1
4.43,1.3266666666666667,0.344,-0.979,3.22,1
4.45,1.4,-1.09,0.055499999999999994,3.51,1
4.47,1.15,-1.1300000000000001,1.09,4.38,1
4.49,0.0892,-1.17,1.6150000000000002,3.55,1
4.51,-1.16,-1.21,2.14,2.72,1
4.53,-1.9,-0.48,0.721,3.46,1
4.54,-2.92,0.25,0.865,3.276666666666667,1
4.56,-2.1799999999999997,0.98,1.58,3.0933333333333333,1
4.58,-1.44,1.71,1.87,2.91,1
4.6,-1.22,-1.05,1.85,2.46,1
4.62,-1.6,-1.72,-0.0613,2.34,1
4.64,-1.3,-2.45,-0.0239,2.77,1
4.65,0.631,-1.38,-1.03,1.84,1
4.67,1.25,0.0503,-0.718,1.44,1
4.69,0.708,0.579,-0.427,1.01,1
4.71,0.145,0.805,0.399,0.91,1
4.73,-0.32,0.671,1.02,1.26,1
4.75,-0.877,0.0987,0.891,1.25,1
4.76,-1.29,-0.206,0.425,1.37,1
4.78,-1.29,-0.424,0.0598,1.36,1
4.8,-0.726,-0.247,0.852,1.15,1
4.82,-0.414,0.512,1.63,1.76,1
4.84,-0.38,1.21,1.51,1.97,1
4.86,-0.393,1.36,0.801,1.62,1
4.88,-0.252,0.807,0.2,0.869,1
4.89,-0.0235,0.123,0.298,0.323,1
4.91,0.243,-0.377,0.202,0.492,1
4.93,0.724,-0.448,0.0207,0.851,1
4.95,1.32,0.33,-0.714,1.54,1
4.97,1.27,1.35,-2.1,2.8,1
4.99,0.375,1.27,-2.18,2.55,1
5.0,-1.33,0.387,-1.16,1.81,1
5.02,-1.2484000000000002,-1.08,0.0686,3.84,1
5.04,-1.1668,-0.8327,0.866,3.1774999999999998,1
5.06,-1.0852,-0.5854,1.02,2.5149999999999997,1
5.08,-1.0036,-0.33810000000000007,0.621,1.8525,1
5.1,-0.922,-0.0908,-0.747,1.19,1
5.11,1.87,1.82,-0.153,2.61,1
5.13,1.6153333333333335,1.4,0.371,4.59,1
5.15,1.360666666666667,1.13,1.57,4.4525,1
5.17,1.106,1.1,1.1765,4.3149999999999995,1
5.19,0.8513333333333335,1.03,0.783,4.1775,1
5.21,0.5966666666666669,0.44,-2.24,4.04,1
5.22,0.342,-0.993,-1.7692500000000002,4.46,1
5.24,-0.698,-1.7715,-1.2985000000000002,4.125,1
5.26,-1.08,-2.55,-0.82775,3.79,1
5.28,-1.09,-0.96,-0.357,1.5,1
5.3,-0.534,1.03,0.642,1.33,1
5.32,-0.693,2.31,0.912,2.58,1
5.34,-0.976,1.95,0.692,2.29,1
5.35,-0.453,1.56,-0.463,1.69,1
5.37,0.116,0.648,-1.45,1.59,1
5.39,0.782,0.204,-1.57,1.76,1
5.41,0.979,0.0938,-1.03,1.42,1
5.43,0.489,-0.486,-0.261,0.737,1
5.45,-0.419,-0.927,0.734,1.25,1
5.46,0.833,-0.199,1.56,1.78,1
5.48,2.44,0.74,1.75,3.1,1
5.5,2.635,0.895,1.09,3.44,1
5.52,2.83,0.744,0.167,2.93,1
5.54,1.64,0.333,-0.874,1.89,1
5.56,-1.44,-0.195,-1.37,1.99,1
5.57,-0.9829999999999999,-0.563,-1.29,2.1233333333333335,1
5.59,-0.5259999999999999,-1.63,-1.21,2.256666666666667,1
5.61,-0.069,-2.11,-1.13,2.39,1
5.63,0.21825,-0.887,1.06,4.81,1
5.65,0.5055000000000001,-0.0173,1.6,4.13,1
5.67,0.7927500000000001,-0.832,0.896,3.45,1
5.69,1.08,-1.57,0.0353,1.9,1
5.7,-0.732,-0.239,0.941,1.22,1
5.72,-1.61,1.36,1.95,2.87,1
5.74,-1.72,1.5633333333333335,0.394,3.71,1
5.76,-1.19,1.7666666666666666,-0.937,4.47,1
5.78,0.631,1.97,0.27,2.09,1
5.8,0.458,-0.735,0.661,1.09,1
5.81,-0.975,-2.44,0.599,2.7,1
5.83,-1.7,-1.561,-0.267,3.7,1
5.85,0.151,-0.682,-0.665,0.964,1
5.87,0.48,0.484,0.0716,0.686,1
5.89,0.218,1.06,0.333,1.13,1
5.91,0.154,1.55,0.713,1.71,1
5.92,0.0657,1.38,0.802,1.6,1
5.94,-0.246,0.381,0.888,0.997,1
5.96,-0.659,-0.647,1.19,1.51,1
5.98,-0.699,-0.71,0.95,1.38,1
6.0,-0.399,-0.000351,0.463,0.611,1
6.02,-0.188,0.257,0.671,0.743,1
6.04,0.144,0.382,0.776,0.877,1
6.05,0.438,0.57,0.324,0.789,1
6.07,0.453,0.468,-0.165,0.672,1
6.09,0.605,0.197,-0.121,0.648,1
6.11,0.839,-0.39,0.355,0.991,1
6.13,1.21,-0.817,0.252,1.48,1
6.15,1.62,-0.615,-0.328,1.77,1
6.16,1.76,0.0343,-0.618,1.87,1
6.18,1.58,0.289,-1.63,2.29,1
6.2,0.951,0.473,-1.95,3.25,1
6.22,-0.219,0.206,-2.27,2.29,1
6.24,-2.39,-0.711,0.18,2.5,1
6.26,-2.0525,-1.82,1.58,4.76,1
6.27,-1.715,-1.9,0.0682,4.91,1
6.29,-1.3775,-1.4,-0.965,3.57,1
6.31,-1.04,-0.544,-0.15,1.18,1
6.33,-0.535,0.947,2.16,2.41,1
6.35,0.0966,2.33,2.18,4.33,1
6.37,1.59,1.913,2.2,4.34,1
6.39,2.67,1.496,0.286,4.58,1
6.4,3.0,1.079,-0.659,4.42,1
6.42,2.5766666666666667,0.662,-1.2793333333333332,4.5225,1
6.44,2.1533333333333333,-2.32,-1.8996666666666666,4.625,1
6.46,1.73,-2.2366666666666664,-2.52,4.7275,1
6.48,1.5,-2.1533333333333333,-0.971,4.83,1
6.5,2.6,-2.07,-0.683,3.39,1
6.51,2.51,0.699,0.867,2.75,1
6.53,0.538,1.65,2.07,2.7,1
6.55,-1.49,1.41,2.15,2.97,1
6.57,-2.32,1.27,1.38,2.99,1
6.59,-2.3,1.75,0.153,2.9,1
6.61,-1.53,1.81,-1.63,2.87,1
6.62,-1.0,0.6,-1.88,3.1,1
6.64,-0.276,-0.469,-2.13,2.2,1
6.66,0.204,-1.22,0.137,1.24,1
6.68,1.03,-1.28,2.0,2.59,1
6.7,1.1225,-0.941,1.62,3.58,1
6.72,1.2149999999999999,-0.547,-0.862,4.63,1
6.74,1.3074999999999999,-0.248,-2.17,4.39,1
6.75,1.4,-0.175,-0.563,1.52,1
6.77,-1.2,-0.218,0.92,1.53,1
6.79,-0.689,-0.373,-0.55,3.39,1
6.81,-0.17799999999999994,-0.306,-0.4966666666666667,4.21,1
6.83,0.333,-0.433,-0.44333333333333336,4.03,1
6.85,1.0053333333333334,-1.3,-0.39,3.99,1
6.86,1.6776666666666666,-0.787,0.715,4.55,1
6.88,2.35,0.303,1.82,2.99,1
6.9,1.11,1.44,-0.1649999999999998,3.31,1
6.92,0.00673,1.26,-2.15,2.49,1
6.94,-0.955,0.591,1.23,1.67,1
6.96,-0.815,0.994,1.5033333333333332,3.63,1
6.97,-1.13,0.798,1.7766666666666664,3.52,1
6.99,-2.29,0.632,2.05,3.14,1
7.01,-2.1550000000000002,0.869,1.42,4.38,1
7.03,-2.02,0.877,0.295,4.335,1
7.05,-1.885,0.277,0.218,4.29,1
7.07,-1.75,-0.505,0.452,1.88,1
7.08,-0.534,-1.21,0.579,1.45,1
7.1,0.00826,-1.31,0.244,1.33,1
7.12,-0.0974,-0.796,-0.11,0.809,1
7.14,0.198,0.311,0.408,0.55,1
7.16,-0.222,0.677,0.804,1.07,1
7.18,-0.725,0.637,0.469,1.07,1
7.2,-0.803,0.292,0.235,0.886,1
7.21,-0.889,0.0488,0.63,1.09,1
7.23,-0.727,0.189,0.559,0.936,1
7.25,-0.428,0.326,0.155,0.56,1
7.27,-0.653,0.195,0.413,0.797,1
7.29,-1.17,-0.026,0.895,1.47,1
7.31,-1.56,0.0926,0.855,1.78,1
7.32,-1.87,0.449,0.886,2.12,1
7.34,-1.97,0.679,0.99,2.31,1
7.36,-2.1,0.714,1.46,2.66,1
7.38,-2.18,0.967,0.857,2.53,1
7.4,-2.02,1.04,0.469,2.32,1
7.42,-1.36,0.933,0.673,1.78,1
7.43,-0.637,0.868,0.79,1.34,1
7.45,-0.16,0.682,0.566,0.901,1
7.47,-0.126,0.287,0.414,0.519,1
7.49,-0.401,0.0582,-0.635,0.754,1
7.51,-1.07,-0.645,-1.3,1.8,1
7.53,-1.95,-1.27,-0.817,2.47,1
7.55,-1.81,-1.31,-1.3313333333333333,3.83,1
7.56,-0.866,-1.43,-1.8456666666666666,3.79,1
7.58,0.62,-1.91,-2.36,3.09,1
7.6,1.25,-2.28,-1.44,2.97,1
7.62,1.43,-2.02,-0.0187,2.47,1
7.64,1.38,-1.39,0.812,2.12,1
7.66,2.05,0.416,0.9410000000000001,3.45,1
7.67,2.2474999999999996,2.74,1.07,5.08,1
7.69,2.445,2.285,0.852,4.63,1
7.71,2.6425,1.83,0.208,4.18,1
7.73,2.84,-2.28,-0.79,3.73,1
7.75,1.34,-2.01,-2.04,3.16,1
7.77,1.12,-0.0689,-2.14,2.41,1
7.78,0.322,-0.184,-2.09,2.12,1
7.8,-0.49,-0.404,-1.09,1.27,1
7.82,-0.92,0.244,-0.196,0.972,1
7.84,-0.801,1.09,0.0769,1.35,1
7.86,-0.426,1.62,-3.98e-05,1.68,1
7.88,0.0316,1.53,0.0466,1.53,1
7.9,0.877,1.07,0.00551,1.38,1
7.91,1.86,0.29,0.0385,1.89,1
7.93,2.93,-0.398,0.509,3.0,1
7.95,2.8150000000000004,-0.627,0.851,3.34,1
7.97,2.7,-0.0857,0.341,2.73,1
7.99,2.03,0.329,-0.516,2.12,1
8.01,1.06,0.762,-0.018,1.3,1
8.02,0.0482,1.22,1.04,1.6,1
8.04,-0.512,0.696,1.13,1.42,1
8.06,-1.96,-0.766,-0.322,2.13,1
8.08,-1.8766666666666667,-1.59,-0.638,2.5,1
8.1,-1.7933333333333332,-2.02,-0.954,2.87,1
8.12,-1.71,-2.45,-1.27,3.24,1
8.13,-0.7775,-1.11,-0.48350000000000004,3.7433333333333336,1
8.15,0.15500000000000003,-0.91,0.303,4.246666666666667,1
8.17,1.0875,0.0127,-0.014500000000000013,4.75,1
8.19,2.02,-0.145,-0.332,2.05,1
8.21,-0.478,0.0267,-0.663,0.818,1
8.23,-2.18,0.709,0.791,2.42,1
8.25,-2.59,1.64,2.48,3.95,1
8.26,-2.15,1.4682499999999998,2.23,4.54,1
8.28,-1.92,1.2965,1.98,4.52,1
8.3,-1.22,1.12475,1.2,3.47,1
8.32,-0.601,0.953,0.651,1.3,1
8.34,-0.287,-0.823,0.139,0.883,1
8.36,-0.839,-2.15,-0.486,2.36,1
8.37,-1.08,-2.205,-0.409,3.16,1
8.39,0.264,-2.26,-0.422,2.31,1
8.41,1.2,-0.457,-0.487,1.38,1
8.43,0.94,0.735,-0.364,1.25,1
8.45,0.743,1.72,0.153,1.88,1
8.47,0.282,1.73,0.744,1.9,1
8.48,-0.686,0.433,0.86,1.18,1
8.5,-2.1,-1.45,0.687,2.64,1
8.52,-2.94,-2.0,0.176,3.56,1
8.54,-2.24,-0.467,0.304,2.31,1
8.56,-1.38,0.652,0.943,1.79,1
8.58,-0.592,0.952,1.04,1.53,1
8.6,0.025,0.897,0.887,1.26,1
8.61,0.131,0.642,0.354,0.744,1
8.63,-0.106,0.101,0.115,0.186,1
8.65,-0.23,-0.431,0.0625,0.493,1
8.67,0.0443,-0.525,-0.591,0.791,1
8.69,0.469,-0.0789,-0.657,0.811,1
8.71,0.469,0.721,-0.271,0.902,1
8.72,-0.107,1.19,-0.508,1.3,1
8.74,-0.91,1.31,-0.548,1.69,1
8.76,-1.78,1.26,-0.536,2.25,1
8.78,-2.36,0.672,-0.409,2.48,1
8.8,-2.46,-0.0664,-0.159,2.47,1
8.82,-1.66,-0.613,-0.844,1.96,1
8.83,-0.998,-1.32,-1.36,2.14,1
8.85,-1.22,-1.75,-0.785,2.27,1
8.87,-0.469,-0.814,0.224,0.966,1
8.89,0.283,1.25,1.35,1.86,1
8.91,1.69,1.93,2.44,3.54,1
8.93,1.8279999999999998,1.66,0.942,4.66,1
8.95,1.966,0.73,-0.468,4.746666666666667,1
8.96,2.104,0.439,-0.291,4.833333333333333,1
8.98,2.242,-1.24,-1.01,4.92,1
9.0,2.38,-2.19,-1.2125,4.62,1
9.02,1.04,-2.1666666666666665,-1.415,4.56,1
9.04,0.642,-2.1433333333333335,-1.6175000000000002,4.39,1
9.06,1.27,-2.12,-1.82,3.07,1
9.07,0.686,-0.606,0.294,0.961,1
9.09,-0.581,0.89,1.33,1.7,1
9.11,-1.32,2.07,1.33,2.79,1
9.13,-1.37,2.54,0.509,2.93,1
9.15,-0.629,2.18,-0.815,2.41,1
9.17,0.385,1.44,-1.5,2.11,1
9.18,1.04,0.71,-1.29,1.81,1
9.2,1.2,0.0963,-0.0906,1.21,1
9.22,1.24,-0.348,1.06,1.67,1
9.24,1.81,-0.541,0.552,1.97,1
9.26,2.33,-0.472,-0.457,2.42,1
9.28,2.35,-0.424,-0.964,2.58,1
9.29,0.65,-0.918,-0.824,1.39,1
9.31,-2.64,-2.38,-0.892,3.67,1
9.33,-1.6783333333333332,-2.11,-0.751,4.085,1
9.35,-0.7166666666666666,-1.84,-1.34,4.5,1
9.37,0.245,1.48,-2.05,2.54,1
9.39,0.9066666666666666,1.3533333333333333,-0.857,2.5433333333333334,1
9.41,1.5683333333333334,1.2266666666666668,0.559,2.5466666666666664,1
9.42,2.23,1.1,-0.569,2.55,1
9.44,1.71,-1.76,-1.23,2.74,1
9.46,1.13,-1.93,1.05,2.47,1
9.48,0.0142,-1.53,1.68,2.27,1
9.5,-1.55,-0.391,0.395,1.65,1
9.52,-2.51,1.07,-0.0811,2.73,1
9.53,-2.06,2.14,0.912,3.11,1
9.55,-1.25,2.6,1.84,3.42,1
9.57,-1.23,1.34,1.76,2.53,1
9.59,-1.5,-0.181,0.467,1.58,1
9.61,-2.3,-1.37,0.21,2.68,1
9.63,-2.17,-1.78,0.399,2.83,1
9.64,-0.505,-0.464,0.129,0.698,1
9.66,-0.000462,0.0461,0.248,0.252,1
9.68,0.453,0.494,0.106,0.678,1
9.7,0.668,0.887,0.287,1.15,1
9.72,0.403,0.861,0.588,1.12,1
9.74,-0.0515,0.532,0.653,0.844,1
9.76,-0.273,-0.0452,0.656,0.712,1
9.77,-0.465,-0.458,0.884,1.1,1
9.79,-0.518,-0.179,0.857,1.02,1
9.81,-0.415,0.361,0.943,1.09,1
9.83,-0.0698,0.702,0.819,1.08,1
9.85,0.211,0.623,0.535,0.848,1
9.87,0.403,0.207,0.226,0.506,1
9.88,0.674,-0.28,-0.175,0.751,1
9.9,1.02,-0.504,-0.681,1.33,1
9.92,0.932,-0.0961,-0.886,1.29,1
9.94,0.391,0.243,-0.883,0.996,1
9.96,-0.575,0.496,-0.686,1.02,1
9.98,-1.25,0.753,-0.97,1.75,1
9.99,-1.45,0.857,-0.774,1.86,1
10.0,-1.55,0.49,-0.0452,1.62,1
10.0,-1.99,-0.427,0.885,2.22,1
10.0,-2.86,-1.62,1.1,3.46,1
10.1,-2.56,-1.67,-0.354,3.08,1
10.1,-1.81,-0.716,-0.896,2.14,1
10.1,-1.12,0.76,-0.00748,1.36,1
10.1,-0.599,2.78,2.17,3.58,1
10.1,0.911,2.415,1.44,3.74,1
10.2,3.0,2.05,-0.0409,3.63,1
10.2,2.942,0.716,0.26,4.86,1
10.2,2.884,-1.35,1.3,4.804,1
10.2,2.826,-1.6700000000000002,-1.06,4.748,1
10.2,2.768,-1.9900000000000002,-1.2525,4.692,1
10.3,2.71,-2.31,-1.445,4.636,1
10.3,1.09,-1.97,-1.6375000000000002,4.58,1
10.3,-0.00225,-0.882,-1.83,2.04,1
10.3,-0.359,0.427,0.459,0.722,1
10.3,-0.284,1.82,1.61,2.45,1
10.3,-0.644,2.61,1.56,3.11,1
10.4,-0.839,2.29,0.482,2.49,1
10.4,-0.532,1.68,-0.274,1.78,1
10.4,-0.149,0.792,-0.666,1.05,1
10.4,0.187,0.0368,-0.813,0.835,1
10.4,0.253,-0.283,-0.151,0.409,1
10.5,0.26,-0.334,0.242,0.487,1
10.5,1.22,-0.338,-0.328,1.31,1
10.5,1.84,-0.683,-0.767,2.11,1
10.5,0.661,-1.58,-1.02,2.0,1
10.5,-2.1,-1.955,-1.37,3.63,1
10.5,-2.395,-2.33,-1.19,4.77,1
10.6,-2.69,-0.895,-0.888,2.97,1
10.6,2.09,1.02,-0.382,2.36,1
10.6,1.92,1.0113333333333334,0.411,3.665,1
10.6,1.75,1.0026666666666666,-0.572,4.97,1
10.6,1.58,0.994,-2.1,2.81,1
10.7,0.272,-2.08,-1.49,2.58,1
10.7,-0.0587,-2.4,-0.173,2.4,1
10.7,0.392,-1.92,1.13,2.26,1
10.7,0.843,-1.06,1.18,1.8,1
10.7,0.452,-0.123,0.0641,0.473,1
10.7,-0.543,1.11,0.305,1.27,1
10.8,-0.774,2.71,1.63,3.26,1
10.8,-0.585,2.29,1.92,4.17,1
10.8,-1.37,1.87,1.83,2.96,1
10.8,-2.07,-0.0866,1.49,2.55,1
10.8,-2.03,-1.13,0.959,3.62,1
10.9,-1.99,-1.43,0.396,3.83,1
10.9,-1.95,-1.04,0.149,2.22,1
10.9,-0.0527,-0.531,-0.16,0.557,1
10.9,0.196,-0.841,-0.22,0.891,1
10.9,-0.0868,-0.582,-0.136,0.604,1
11.0,-0.601,-0.0764,0.0746,0.611,1
11.0,-0.828,0.684,0.304,1.12,1
11.0,-0.924,1.1,0.563,1.55,1
11.0,-0.937,0.836,0.647,1.41,1
11.0,-0.846,0.484,0.781,1.25,1
11.0,-0.647,0.182,0.874,1.1,1
11.1,-0.445,-0.0497,0.99,1.09,1
11.1,-0.451,0.0132,0.874,0.983,1
11.1,-0.224,0.339,0.448,0.605,1
11.1,0.17,0.65,0.0493,0.674,1
11.1,0.408,0.793,-0.125,0.901,1
11.2,0.156,0.661,0.181,0.703,1
11.2,-0.305,0.401,0.315,0.594,1
11.2,-0.7,0.323,0.0851,0.775,1
11.2,-1.03,0.494,-0.377,1.2,1
11.2,-1.12,0.698,-1.05,1.69,1
11.2,-1.36,0.44,-0.971,1.73,1
11.3,-1.63,-0.285,-0.314,1.68,1
11.3,-1.09,-1.01,-0.177,1.5,1
11.3,0.176,-1.21,-0.624,1.38,1
11.3,0.998,-1.0,-0.937,1.7,1
11.3,0.738,-0.543,-0.681,1.14,1
11.4,-0.255,0.16,0.489,0.574,1
11.4,-1.24,1.16,2.25,2.82,1
11.4,-0.723,2.09,1.92,2.93,1
11.4,0.863,1.96,-0.0229,2.14,1
11.4,1.21475,1.06,-1.93,3.96,1
11.4,1.5665,-0.85,-0.931,4.1875,1
11.5,1.91825,-1.4033333333333333,-0.201,4.415,1
11.5,2.27,-1.9566666666666666,-0.62,4.6425,1
11.5,2.7,-2.51,-0.57,4.87,1
11.5,2.91,-1.15,-0.52,3.955,1
11.5,1.21,-0.357,-0.47,3.04,1
11.6,0.0728,0.643,-0.42,0.771,1
11.6,-0.269,1.65,1.77,2.43,1
11.6,-0.804,2.31,1.97,3.14,1
11.6,-0.85,2.74,0.829,2.99,1
11.6,-0.32,2.39,-0.407,2.45,1
11.7,0.143,1.26,-1.07,1.66,1
11.7,0.34,0.169,-0.897,0.974,1
11.7,0.46,-0.534,-0.622,0.94,1
11.7,0.543,-0.918,-0.589,1.22,1
11.7,1.13,-0.843,-0.913,1.68,1
11.7,1.66,-0.47,-0.975,1.98,1
11.8,1.09,-0.409,-0.566,1.3,1
11.8,-1.03,-1.35,-0.676,1.83,1
11.8,-1.3566666666666667,-2.28,-1.12,4.47,1
11.8,-1.6833333333333331,-2.0,-2.43,3.7,1
11.8,-2.01,-0.887,-1.94,2.93,1
11.9,1.01,0.637,0.442,1.27,1
11.9,2.51,1.24,0.53,2.85,1
11.9,2.03,1.13,-1.04,2.55,1
11.9,1.07,0.00568,-0.513,1.19,1
11.9,1.14,-1.49,1.24,2.25,1
11.9,0.863,-1.89,0.145,2.09,1
12.0,0.0418,0.553,-1.45,1.56,1
12.0,0.326,1.85,-1.03,2.14,1
12.0,0.134,1.58,0.581,1.69,1
12.0,0.427,1.08,1.68,2.04,1
12.0,0.428,0.524,2.18,2.28,1
12.1,0.497,0.318,1.11,1.26,1
12.1,-0.132,0.497,0.572,0.769,1
12.1,-0.275,0.763,0.526,0.967,1
12.1,0.42,0.424,0.443,0.743,1
12.1,-0.566,-0.157,1.49,1.6,1
12.1,-2.08,-0.252,1.71,2.71,1
12.2,-1.53,-0.408,0.527,1.67,1
12.2,-0.297,0.114,0.157,0.355,1
12.2,0.313,0.497,0.829,1.02,1
12.2,0.216,0.514,0.695,0.891,1
12.2,0.255,0.382,0.0938,0.468,1
12.3,0.194,0.125,0.267,0.353,1
12.3,-0.00242,-0.266,0.708,0.757,1
12.3,-0.196,-0.542,0.536,0.787,1
12.3,-0.296,-0.3,0.158,0.45,1
12.3,-0.2,0.104,0.191,0.296,1
12.4,-0.0142,0.276,0.433,0.513,1
12.4,0.0994,0.414,0.273,0.506,1
12.4,0.302,0.518,0.0217,0.6,1
12.4,0.492,0.496,-0.158,0.717,1
12.4,0.3,0.209,-0.218,0.426,1
12.4,-0.402,-0.0767,-0.207,0.459,1
12.5,-1.12,0.388,-0.0575,1.18,1
12.5,-1.57,1.45,-0.371,2.17,1
12.5,-1.87,1.99,0.216,2.74,1
12.5,-1.2,2.01,0.326,2.36,1
12.5,0.217,1.02,0.806,1.32,1
12.6,0.543,-0.703,1.24,1.53,1
12.6,-0.534,-1.47,0.769,1.74,1
12.6,-1.4,-0.677,1.01,1.86,1
12.6,-1.04,0.304,0.959,1.45,1
12.6,-0.0992,0.237,-0.588,0.642,1
12.6,1.46,-0.185,-1.52,2.12,1
12.7,2.74,-0.871,-1.86,3.43,1
12.7,2.6900000000000004,-1.99,-0.868,3.81,1
12.7,2.64,-2.28,-0.776,4.14,1
12.7,1.62,-2.57,-1.94,3.6,1
12.7,1.46,-0.941,-2.145,3.35,1
12.8,0.598,-0.353,-2.35,2.45,1
12.8,0.446,0.162,-1.24,1.32,1
12.8,0.413,0.713,0.29,0.874,1
12.8,0.103,1.28,1.31,1.83,1
12.8,-0.248,1.6,0.849,1.83,1
12.8,-0.263,1.35,-0.188,1.39,1
12.9,-0.42,0.658,-1.08,1.33,1
12.9,-0.381,-0.264,-1.55,1.62,1
12.9,-0.116,-0.835,-0.979,1.29,1
12.9,0.329,-0.93,-0.236,1.01,1
12.9,0.979,-0.678,0.0413,1.19,1
13.0,1.25,-0.31,-0.17,1.3,1
13.0,0.606,-0.167,-0.604,0.872,1
13.0,-1.26,-0.917,-0.655,1.69,1
13.0,-1.3800000000000001,-1.92,-0.377,3.7,1
13.0,-1.5,-1.64,-1.33,4.09,1
13.1,-1.62,0.222,-2.21,2.75,1
13.1,1.44,2.66,-0.434,3.06,1
13.1,2.91,2.1950000000000003,0.449,4.62,1
13.1,2.21,1.73,-0.789,2.92,1
13.1,2.23,-1.2,-0.0452,2.54,1
13.1,2.21,-1.88,2.14,3.61,1
13.2,1.28,-1.96,0.849,2.49,1
13.2,-0.848,-0.842,-1.94,2.28,1
13.2,-0.93,0.989,-1.43,1.97,1
13.2,-0.491,1.37,0.726,1.63,1
13.2,-1.21,1.55,1.288,3.3,1
13.3,-1.27,0.442,1.85,2.29,1
13.3,-1.47,-1.18,0.603,1.98,1
13.3,-2.38,-1.47,0.725,2.89,1
13.3,-2.36,-0.989,0.118,2.57,1
13.3,-0.211,0.558,0.415,0.726,1
13.3,0.207,0.625,0.79,1.03,1
13.4,-0.144,0.171,0.133,0.26,1
13.4,-0.177,0.154,0.0614,0.242,1
13.4,-0.261,0.126,0.655,0.716,1
13.4,-0.0933,0.371,0.738,0.832,1
13.4,0.0164,0.343,0.331,0.477,1
13.5,0.206,0.269,0.0476,0.342,1
13.5,0.286,0.153,0.151,0.358,1
13.5,0.235,0.185,0.589,0.66,1
13.5,-0.0929,0.323,0.955,1.01,1
13.5,-0.339,0.19,0.814,0.902,1
13.5,-0.0956,-0.0562,0.231,0.257,1
13.6,0.467,-0.226,0.0946,0.527,1
13.6,0.781,-0.0927,0.394,0.88,1
13.6,0.963,0.232,0.26,1.02,1
13.6,0.948,0.688,-0.261,1.2,1
13.6,0.717,1.06,-0.358,1.33,1
13.7,0.0985,1.31,0.16,1.33,1
13.7,-0.576,1.4,-0.312,1.55,1
13.7,-0.975,1.45,-0.343,1.78,1
13.7,-2.03,1.19,0.946,2.53,1
13.7,-2.72,1.17,0.656,3.04,1
13.8,-2.15,0.832,-0.467,2.35,1
13.8,-1.16,-0.63,-0.802,1.54,1
13.8,-0.984,-2.34,-0.087,2.54,1
13.8,-1.5,-2.0149999999999997,0.882,3.37,1
13.8,-0.945,-1.69,0.822,2.1,1
13.8,1.52,-0.101,-0.115,1.52,1
13.9,1.6524999999999999,0.549,-1.39,4.63,1
13.9,1.785,0.371,-0.249,4.78,1
13.9,1.9175,0.507,0.75,4.26,1
13.9,2.05,-0.947,-0.591,2.34,1
13.9,0.783,-1.35,-1.147333333333333,3.06,1
14.0,0.661,-1.13,-1.7036666666666664,3.22,1
14.0,0.144,-1.65,-2.26,2.8,1
14.0,-0.188,-1.21,-1.79,2.17,1
14.0,-0.0475,-0.225,-1.03,1.06,1
14.0,0.246,0.775,-0.0854,0.817,1
14.0,0.281,1.41,0.7,1.6,1
14.1,0.122,1.64,0.57,1.74,1
14.1,0.277,1.54,0.0928,1.57,1
14.1,0.421,0.932,-0.499,1.14,1
14.1,0.568,0.271,-0.99,1.17,1
14.1,1.21,-0.00796,-0.454,1.29,1
14.2,0.906,-0.325,0.291,1.01,1
14.2,0.358,-0.62,0.0916,0.722,1
14.2,-0.255,-1.16,-0.729,1.39,1
14.2,-1.3,-1.89,-0.555,2.36,1
14.2,-1.84,-2.16,-1.14,3.43,1
14.2,-1.0,-2.43,-0.75,2.73,1
14.3,0.121,-0.984,-0.569,1.14,1
14.3,1.85,0.823,-0.967,2.24,1
14.3,2.92,1.97,-1.12,3.7,1
14.3,2.88,1.95,0.39,3.49,1
14.3,2.53,1.0,0.799,2.84,1
14.4,1.26,0.541,-0.878,1.63,1
14.4,-0.546,0.893,-1.71,2.0,1
14.4,-1.69,1.17,-0.554,2.13,1
14.4,-2.63,0.552,1.57,3.12,1
14.4,-2.2,0.0787,1.75,2.81,1
14.5,-1.36,-0.149,1.07,1.73,1
14.5,-0.724,0.239,1.22,1.44,1
14.5,0.0343,1.02,1.16,1.55,1
14.5,0.693,1.09,0.919,1.58,1
14.5,0.285,0.109,0.929,0.978,1
14.5,-0.62,-0.889,0.502,1.19,1
14.6,-1.01,-1.58,-0.249,1.89,1
14.6,-0.893,-1.35,0.444,1.68,1
14.6,-1.48,-0.831,0.873,1.9,1
14.6,-1.52,-0.206,0.325,1.56,1
14.6,-1.35,0.767,0.373,1.6,1
14.7,-1.04,1.38,0.479,1.79,1
14.7,-0.828,1.19,0.662,1.59,1
14.7,-0.87,0.578,0.706,1.26,1
14.7,-0.979,-0.177,0.484,1.11,1
14.7,-1.14,-0.623,0.382,1.36,1
14.7,-0.861,-0.618,0.46,1.15,1
14.8,-0.416,0.00471,0.751,0.859,1
14.8,0.347,0.626,0.684,0.99,1
14.8,0.978,0.786,0.262,1.28,1
14.8,1.13,0.609,-0.482,1.37,1
14.8,0.567,0.512,-0.404,0.864,1
14.9,0.0351,0.455,-0.0587,0.46,1
14.9,-0.2,0.37,0.464,0.627,1
14.9,-0.0402,0.596,0.151,0.616,1
14.9,-0.661,0.624,-1.14,1.45,1
14.9,-1.72,0.267,-1.28,2.16,1
14.9,-2.4,-0.194,-0.763,2.52,1
15.0,-1.48,-0.782,-0.591,1.78,1
15.0,0.0265,-1.51,0.328,1.55,1
15.0,1.15,-1.68,0.827,2.2,1
15.0,0.943,-1.26,0.585,1.68,1
15.0,0.32,-0.0555,-0.311,0.45,1
15.1,0.302,1.64,0.0148,1.67,1
15.1,1.61,2.33,-0.218,2.84,1
15.1,2.55,1.7,0.168,3.07,1
15.1,2.17,-0.55,0.683,2.34,1
15.1,1.36,-2.0,-0.92,2.59,1
15.2,0.92,-1.9,-2.27,3.1,1
15.2,0.83,-1.75,-2.38,3.06,1
15.2,0.732,-1.41,-1.87,2.46,1
15.2,0.312,-0.36,-1.17,1.27,1
15.2,0.226,0.78,-0.645,1.04,1
15.2,0.0284,1.42,-0.207,1.43,1
15.3,-0.496,1.33,0.0161,1.42,1
15.3,-1.27,0.72,-0.0566,1.46,1
15.3,-1.19,0.168,-0.14,1.21,1
15.3,-0.301,-0.229,0.0255,0.379,1
15.3,0.563,-0.501,0.0108,0.753,1
15.4,0.883,-0.59,-0.0484,1.06,1
15.4,1.18,-0.646,0.38,1.4,1
15.4,1.2,-0.718,0.746,1.58,1
15.4,0.992,-0.471,0.475,1.2,1
15.4,0.407,-0.172,-0.504,0.671,1
15.4,-0.477,-0.198,-1.47,1.56,1
15.5,-1.33,-0.839,-0.75,1.74,1
15.5,-1.27,-1.83,-0.238,2.24,1
15.5,0.396,-1.53,-0.104,1.59,1
15.5,1.11,-0.328,-0.359,1.21,1
15.5,0.596,0.437,-0.119,0.749,1
15.6,0.503,1.31,-1.12,1.8,1
15.6,0.255,2.17,-0.803,2.33,1
15.6,-0.473,2.46,-0.333,2.53,1
15.6,-0.109,2.565,-1.1,3.31,1
15.6,1.24,2.67,0.166,2.95,1
15.6,2.24,0.814,1.19,2.67,1
15.7,1.57,-0.721,0.3,1.75,1
15.7,0.403,-1.2,-1.37,1.86,1
15.7,-0.196,-1.71,-0.989,1.99,1
15.7,-0.00739,-1.53,0.148,1.54,1
15.7,0.0735,-0.627,1.72,1.83,1
15.8,-0.137,0.616,1.88,1.98,1
15.8,-0.541,1.45,1.35,2.05,1
15.8,-1.6,1.25,0.899,2.22,1
15.8,-2.4,0.699,1.3,2.82,1
15.8,-2.49,-0.144,1.29,2.81,1
15.9,-1.33,-0.278,0.968,1.67,1
15.9,0.412,-0.0894,0.875,0.972,1
15.9,0.762,-0.38,0.617,1.05,1
15.9,0.2,-0.343,0.192,0.441,1
15.9,-0.318,-0.332,0.135,0.479,1
15.9,-0.831,-0.265,0.353,0.941,1
16.0,-1.04,-0.106,0.428,1.13,1
16.0,-0.8,0.0308,0.246,0.837,1
16.0,-0.727,-0.201,0.47,0.889,1
16.0,-0.521,-0.27,0.524,0.787,1
16.0,-0.209,-0.19,0.526,0.597,1
16.1,-0.118,-0.238,0.104,0.285,1
16.1,0.0398,-0.184,-0.0503,0.195,1
16.1,-0.0561,0.179,0.0823,0.205,1
16.1,0.112,0.875,-0.0571,0.884,1
16.1,0.195,1.33,-0.251,1.36,1
16.1,0.312,1.34,-0.377,1.42,1
16.2,0.191,1.21,-0.287,1.26,1
16.2,-0.178,1.16,-0.758,1.4,1
16.2,-0.582,1.07,-1.41,1.87,1
16.2,-0.899,0.872,-1.23,1.76,1
16.2,-1.32,0.363,0.364,1.42,1
16.3,-1.59,-0.586,0.883,1.91,1
16.3,-0.984,-2.08,0.474,2.35,1
16.3,-0.453,-2.1166666666666667,0.115,3.55,1
16.3,0.00953,-2.1533333333333333,-0.546,3.87,1
16.3,0.935,-2.19,-2.43,3.4,1
16.3,1.53,0.167,-1.45,2.11,1
16.4,1.83,2.27,1.35,3.22,1
16.4,2.78,2.29,1.94,4.63,1
16.4,2.665,2.31,0.199,3.91,1
16.4,2.55,0.387,-1.29,2.89,1
16.4,1.85,-1.39,-2.32,3.28,1
16.5,1.85,-2.19,-2.26,3.65,1
16.5,1.47,-2.18,-1.43,3.0,1
16.5,1.05,-1.02,-0.94,1.74,1
16.5,0.865,0.317,-0.571,1.08,1
16.5,0.519,1.08,-0.207,1.22,1
16.6,0.316,1.49,0.056,1.52,1
16.6,-0.223,1.33,0.052,1.35,1
16.6,-0.624,0.776,-0.258,1.03,1
16.6,-0.308,0.378,-0.397,0.628,1
16.6,0.176,0.066,-0.291,0.347,1
16.6,0.57,-0.0231,-0.0642,0.574,1
16.7,0.742,0.136,0.529,0.921,1
16.7,0.819,0.44,1.14,1.47,1
16.7,0.518,0.519,0.884,1.15,1
16.7,0.15,0.63,-0.339,0.731,1
16.7,-0.211,-0.00702,-1.22,1.24,1
16.8,-0.773,-1.82,-1.24,2.33,1
16.8,-0.66,-2.145,-0.953,3.13,1
16.8,-0.177,-2.47,-1.28,2.79,1
16.8,0.467,-0.879,-1.19,1.55,1
16.8,1.67,1.1,0.171,2.01,1
16.8,1.96,2.67,0.946,3.44,1
16.9,0.834,2.4966666666666666,-0.541,3.15,1
16.9,0.166,2.3233333333333333,-2.1,3.66,1
16.9,-1.04,2.15,-0.37,2.42,1
16.9,-1.08,0.645,1.29,1.8,1
16.9,-0.606,-0.512,1.81,1.98,1
17.0,-0.333,-1.42,0.386,1.51,1
17.0,-0.119,-1.46,-0.287,1.49,1
17.0,-0.0276,-0.677,0.547,0.871,1
17.0,-0.00738,0.328,1.0,1.06,1
17.0,-0.22,0.491,0.899,1.05,1
17.0,-0.695,0.185,0.814,1.09,1
17.1,-1.51,-0.335,0.771,1.73,1
17.1,-2.19,-1.26,0.587,2.59,1
17.1,-2.2,-1.23,0.707,2.62,1
17.1,-1.68,-0.38,0.607,1.83,1
17.1,-1.36,0.195,0.379,1.42,1
17.2,-1.17,0.156,0.341,1.22,1
17.2,-0.987,0.0675,0.326,1.04,1
17.2,-0.966,-0.0671,0.294,1.01,1
17.2,-1.06,-0.0974,0.383,1.13,1
17.2,-1.05,-0.0706,0.439,1.14,1
17.3,-0.831,0.0593,0.56,1.0,1
17.3,-0.525,0.0966,0.608,0.809,1
17.3,-0.166,0.149,0.443,0.496,1
17.3,-0.0583,0.0347,0.395,0.401,1
17.3,0.101,0.0499,0.472,0.486,1
17.3,0.0319,-0.128,0.12,0.178,1
17.4,0.161,0.062,-0.379,0.417,1
17.4,0.325,0.35,-0.378,0.609,1
17.4,0.283,0.469,-0.305,0.627,1
17.4,-0.112,0.523,0.296,0.611,1
17.4,-0.733,0.759,0.198,1.07,1
17.5,-1.38,1.16,0.543,1.89,1
17.5,-1.42,1.94,0.983,2.6,1
17.5,-0.561,1.8325,0.272,2.97,1
17.5,-0.29,1.725,-0.925,3.52,1
17.5,-1.24,1.6175,-1.81,3.65,1
17.5,-2.15,1.51,-2.47,3.61,1
17.6,-1.47,-1.83,0.305,2.36,1
17.6,0.221,-1.23825,1.3074999999999999,2.7466666666666666,1
17.6,2.01,-0.6465000000000001,2.31,3.1333333333333333,1
17.6,2.1849999999999996,-0.054750000000000076,-1.8,3.5199999999999996,1
17.6,2.36,0.537,-1.645,3.9066666666666663,1
17.7,2.535,0.7846666666666667,-1.49,4.293333333333333,1
17.7,2.71,1.0323333333333333,-1.18,4.68,1
17.7,1.01,1.28,-0.893,1.86,1
17.7,0.107,-0.496,0.2,0.545,1
17.7,-0.183,-1.72,0.0602,1.73,1
17.7,0.411,-1.73,-0.463,1.84,1
17.8,1.16,-0.752,-1.34,1.92,1
17.8,1.29,0.771,-1.14,1.89,1
17.8,1.04,1.56,-0.529,1.95,1
17.8,0.617,1.46,-0.126,1.59,1
17.8,0.186,1.01,-0.0949,1.03,1
17.9,0.0138,0.481,-0.147,0.503,1
17.9,0.145,0.272,-0.157,0.346,1
17.9,0.377,0.444,-0.0884,0.589,1
17.9,0.635,0.646,0.155,0.919,1
17.9,0.81,0.567,0.192,1.01,1
18.0,0.398,0.0851,0.151,0.434,1
18.0,-0.148,-0.211,0.577,0.632,1
18.0,-0.348,0.128,0.142,0.397,1
18.0,-0.968,0.333,-0.301,1.07,1
18.0,-1.88,-0.298,0.417,1.94,1
18.0,-0.988,-0.596,0.00891,1.15,1
18.1,0.81,-0.33,-1.6,1.83,1
18.1,1.7,-0.0462,-1.12,2.04,1
18.1,1.86,-0.0362,-0.494,1.92,1
18.1,1.86,-0.2,-0.533,1.95,1
18.1,2.09,0.307,-1.22,2.44,1
18.2,1.78,0.438,-1.61,2.44,1
18.2,0.966,0.427,-1.05,1.49,1
18.2,-0.154,0.65,-0.335,0.747,1
18.2,-1.27,0.643,1.31,1.93,1
18.2,-1.55,-0.127,2.27,2.75,1
18.2,-1.52,-0.377,1.51,2.18,1
18.3,-1.96,1.36,1.67,2.92,1
18.3,-1.6,1.1740000000000002,1.66,4.57,1
18.3,-1.27,0.988,1.65,3.78,1
18.3,-1.7,0.802,0.743,2.02,1
18.3,-1.76,-1.26,0.817,2.31,1
18.4,-0.709,-2.1,0.337,2.25,1
18.4,0.3,-2.1233333333333335,-0.565,2.71,1
18.4,0.682,-2.1466666666666665,-0.639,3.1,1
18.4,0.3,-2.17,-0.459,2.24,1
18.4,-0.771,-1.06,-0.101,1.31,1
18.4,-1.08,-0.0261,-0.00725,1.08,1
18.5,-1.35,0.735,0.115,1.54,1
18.5,-1.9,0.414,0.486,2.0,1
18.5,-2.23,-0.346,0.308,2.28,1
18.5,-2.1,-0.988,0.624,2.4,1
18.5,-1.71,-0.931,1.01,2.19,1
18.6,-1.27,-0.33,0.91,1.6,1
18.6,-0.852,0.268,0.88,1.25,1
18.6,-0.778,0.643,0.745,1.25,1
18.6,-0.743,0.65,0.305,1.03,1
18.6,-0.143,1.06,0.275,1.11,1
18.7,0.00384,1.09,0.335,1.14,1
18.7,-0.103,1.12,0.146,1.13,1
18.7,-0.125,1.19,0.000373,1.2,1
18.7,-0.185,1.26,0.0232,1.27,1
18.7,-0.425,1.22,0.11,1.29,1
18.7,-0.807,0.947,0.55,1.36,1
18.8,-0.989,0.74,0.49,1.33,1
18.8,-0.701,0.976,-0.407,1.27,1
18.8,-0.174,1.47,-1.4,2.04,1
18.8,-0.0755,1.13,-1.25,1.69,1
18.8,-0.663,-0.181,-0.246,0.73,1
18.9,-0.99,-1.93,-0.0826,2.17,1
18.9,-0.424,-1.8433333333333333,0.785,3.89,1
18.9,0.81,-1.7566666666666666,1.69,4.65,1
18.9,1.1600000000000001,-1.67,-0.357,3.71,1
18.9,1.51,1.7,-1.24,4.91,1
18.9,1.8599999999999999,2.52,-0.374,4.17,1
19.0,2.21,1.34,0.00536,2.59,1
19.0,1.87,-0.0825,-0.188,1.89,1
19.0,1.58,-1.44,-0.759,2.26,1
19.0,1.32,-1.6,-1.41,2.51,1
19.0,1.49,-1.24,-1.31,2.34,1
19.1,1.29,-0.792,-1.29,1.99,1
19.1,1.08,-0.149,-1.23,1.64,1
19.1,0.869,0.669,-0.802,1.36,1
19.1,0.609,1.3,-0.186,1.45,1
19.1,0.147,1.56,-0.0824,1.57,1
19.1,-0.398,1.36,-0.0189,1.42,1
19.2,-0.51,0.78,-0.0903,0.936,1
19.2,-0.2,0.126,-0.202,0.311,1
19.2,0.572,-0.153,-0.189,0.622,1
19.2,1.47,-0.0194,0.0023,1.47,1
19.2,1.94,0.0272,-0.166,1.94,1
19.3,1.94,0.0453,-0.381,1.98,1
19.3,1.43,0.141,-0.316,1.48,1
19.3,0.728,0.215,0.00806,0.759,1
19.3,-0.483,-0.236,-0.615,0.817,1
19.3,-2.16,-1.61,-1.32,3.01,1
19.3,-2.94,-1.2016666666666667,-1.15,4.4,1
19.4,-1.37,-0.7933333333333333,-1.63,3.4,1
19.4,0.129,-0.385,-1.09,1.16,1
19.4,2.04,1.9,0.948,2.94,1
19.4,1.8733333333333333,2.01,2.04,5.11,1
19.4,1.7066666666666668,0.768,-0.259,3.44,1
19.5,1.54,1.1,-0.43433333333333335,4.13,1
19.5,0.271,1.53,-0.6096666666666667,3.51,1
19.5,-0.537,1.16,-0.785,1.5,1
19.5,-1.22,-0.0416,0.367,1.28,1
19.5,-1.44,-1.39,0.787,2.15,1
19.6,-0.798,-2.1,1.13,2.52,1
19.6,-0.454,-1.92,1.2,2.31,1
19.6,-0.584,0.6,1.17,1.44,1
19.6,-0.311,2.18,1.57,2.71,1
19.6,-0.575,2.23,1.63,2.82,1
19.6,-1.2,1.44,1.42,2.35,1
19.7,-1.72,0.726,1.42,2.34,1
19.7,-1.97,-0.486,1.61,2.59,1
19.7,-1.73,-1.26,1.13,2.42,1
19.7,-1.4,-1.48,0.828,2.19,1
19.7,-1.17,-0.677,0.576,1.47,1
19.8,-0.76,0.425,0.483,0.996,1
19.8,-0.658,0.599,0.509,1.03,1
19.8,-0.371,0.629,0.424,0.844,1
19.8,-0.185,0.494,0.243,0.58,1
19.8,-0.188,0.314,0.274,0.457,1
19.8,-0.529,-0.0481,0.446,0.694,1
19.9,-0.588,-0.698,0.836,1.24,1
19.9,-0.57,-0.575,0.782,1.13,1
19.9,-0.289,-0.0275,0.183,0.344,1
19.9,-0.0781,0.315,0.138,0.353,1
19.9,0.189,0.472,0.209,0.55,1
20.0,0.489,0.63,-0.177,0.816,1
20.0,0.585,0.652,-0.283,0.921,1
20.0,0.558,0.409,-0.349,0.775,1
20.0,0.394,0.226,-0.436,0.63,1
20.0,0.292,0.295,-0.404,0.579,1
20.0,0.354,0.424,-0.301,0.629,1
20.1,-0.448,0.344,-0.0599,0.568,1
20.1,-1.69,0.0125,-0.232,1.71,1
20.1,-2.41,-0.338,-1.22,2.72,1
20.1,-2.57,-0.662,-1.29,2.95,1
20.1,-2.49,-1.02,-0.285,2.7,1
20.2,-1.8,-0.639,0.374,1.95,1
20.2,-0.93,0.188,0.687,1.17,1
20.2,-0.2,1.22,0.847,1.5,1
20.2,0.252,2.12,1.35,2.53,1
20.2,1.21,2.18,1.86,3.77,1
20.3,2.33,2.2399999999999998,1.33,4.08,1
20.3,2.362,2.3,-0.15,3.9,1
20.3,2.394,0.286,-2.1,4.07,1
20.3,2.426,-0.07320000000000004,-2.34,4.98,1
20.3,2.458,-0.43240000000000006,-1.45,4.99,1
20.3,2.49,-0.7916000000000001,-1.41,5.0,1
20.4,2.19,-1.1508,-1.28,5.01,1
20.4,1.7,-1.51,-1.15,3.7,1
20.4,0.706,0.187,-1.02,1.26,1
20.4,-0.069,1.62,0.736,1.78,1
20.4,-0.063,2.6,1.08,2.81,1
20.5,0.54,2.39,0.682,2.54,1
20.5,0.669,1.54,-0.188,1.69,1
20.5,0.766,0.542,-0.795,1.23,1
20.5,0.816,-0.181,-0.803,1.16,1
20.5,0.695,-0.5,-0.598,1.04,1
20.5,0.697,-0.408,-0.571,0.989,1
20.6,0.988,0.0267,-0.699,1.21,1
20.6,1.03,0.432,0.106,1.12,1
20.6,-0.0177,0.503,1.06,1.18,1
20.6,-1.29,0.23,0.29,1.34,1
20.6,-2.57,-0.772,-1.24,2.96,1
20.7,-2.41,-2.0,-1.42,3.44,1
20.7,-0.221,-2.34,-1.79,2.95,1
20.7,1.65,-1.89,-1.89,3.14,1
20.7,2.56,-1.24,0.286,2.86,1
20.7,2.75,-0.713,1.85,3.39,1
20.7,2.2,2.04,-1.68,3.44,1
20.8,1.17,2.71,-2.05,3.59,1
20.8,-0.133,2.256666666666667,-0.195,3.06,1
20.8,-0.942,1.8033333333333332,0.742,3.25,1
20.8,-1.27,1.35,1.63,2.47,1
20.8,-1.3,-0.669,2.25,2.69,1
20.9,-1.12,-1.69,1.82,2.72,1
20.9,-0.98,-1.34,1.18,2.03,1
20.9,-1.56,0.818,1.33,2.21,1
20.9,-1.39,2.06,1.09,2.71,1
20.9,-1.87,1.18,0.834,2.37,1
21.0,-2.33,-0.0502,0.746,2.44,1
21.0,-2.05,-1.31,0.837,2.57,1
21.0,-1.28,-1.76,0.786,2.31,1
21.0,-0.627,-1.09,0.33,1.3,1
21.0,-0.0943,-0.027,0.595,0.603,1
21.0,-0.143,-0.0435,0.35,0.381,1
21.1,-0.479,-0.0418,0.145,0.503,1
21.1,-0.772,-0.0373,0.0635,0.776,1
21.1,-0.892,-0.02,0.181,0.91,1
21.1,-0.807,0.0456,0.329,0.873,1
21.1,-0.64,0.103,0.287,0.709,1
21.2,-0.749,0.0219,0.326,0.817,1
21.2,-0.718,0.0456,0.517,0.886,1
21.2,-0.677,0.0927,0.643,0.938,1
21.2,-0.978,0.214,0.672,1.21,1
21.2,-0.946,0.133,0.487,1.07,1
21.2,-0.352,0.389,0.717,0.888,1
21.3,0.27,0.784,0.594,1.02,1
21.3,0.692,0.802,0.0914,1.06,1
21.3,1.03,0.525,-0.0483,1.15,1
21.3,0.951,0.272,0.195,1.01,1
21.3,0.341,0.36,0.198,0.533,1
21.4,-0.299,0.622,-0.196,0.717,1
21.4,-0.732,0.747,-0.398,1.12,1
21.4,-0.987,0.887,-0.745,1.52,1
21.4,-1.25,0.964,-1.54,2.21,1
21.4,-1.82,0.652,-1.46,2.42,1
21.4,-2.59,0.256,-0.485,2.65,1
21.5,-2.42,-0.237,-0.279,2.44,1
21.5,-0.736,-1.56,0.0228,1.73,1
21.5,1.12,-2.3,0.769,2.67,1
21.5,1.28,-2.2,1.35,2.88,1
21.5,1.45,-0.821,-0.306,1.7,1
21.6,1.46,0.987,0.529,1.84,1
21.6,1.6575,1.73,0.0869,3.49,1
21.6,1.855,1.63,0.442,4.65,1
21.6,2.0525,0.0701,-0.741,3.66,1
21.6,2.25,-1.48,-2.07,3.4,1
21.7,1.34,-2.42,-2.17,3.52,1
21.7,1.12,-2.61,-2.13,3.55,1
21.7,0.731,-1.67,-1.64,2.45,1
21.7,0.679,-0.266,-0.968,1.21,1
21.7,0.364,0.765,-0.357,0.919,1
21.7,0.416,1.59,-0.15,1.65,1
21.8,0.376,1.59,-0.0152,1.64,1
21.8,0.426,1.06,0.207,1.16,1
21.8,0.869,0.45,0.179,0.995,1
21.8,1.41,0.109,-0.00467,1.41,1
21.8,1.46,0.0516,-0.214,1.48,1
21.9,1.25,-0.042,-0.458,1.33,1
21.9,1.16,-0.0168,-0.542,1.28,1
21.9,0.925,0.108,0.25,0.964,1
21.9,0.548,0.0551,0.633,0.84,1
21.9,-0.276,-0.186,-0.348,0.482,1
21.9,-1.63,-1.25,-1.36,2.47,1
22.0,-2.97,-2.55,-0.626,3.96,1
22.0,-2.56,-2.36,-1.24,3.7,1
22.0,-1.13,-0.984,-1.68,2.25,1
22.0,1.1,1.07,0.341,1.57,1
22.0,1.4166666666666667,1.4333333333333333,1.84,4.9,1
22.1,1.7333333333333334,1.7966666666666669,-1.97,4.65,1
22.1,2.05,2.16,-0.9561,4.4,1
22.1,0.63,1.26,0.0578,1.41,1
22.1,-0.116,0.897,2.03,2.22,1
22.1,-0.915,-0.088,2.03,2.23,1
22.1,-1.99,-1.56,1.75,3.08,1
22.2,-2.82,-1.97,0.517,3.48,1
22.2,-2.59,0.401,0.0548,2.62,1
22.2,-0.783,2.22,1.53,2.81,1
22.2,-1.06,1.66,1.36,2.39,1
22.2,-1.62,0.315,0.729,1.8,1
22.3,-1.59,-0.694,0.694,1.87,1
22.3,-1.46,-1.72,1.06,2.49,1
22.3,-1.75,-2.34,0.76,3.02,1
22.3,-0.978,-0.84,0.00188,1.29,1
22.3,-0.205,-0.00807,0.414,0.462,1
22.4,-0.329,-0.0365,0.375,0.5,1
22.4,-0.475,-0.0749,0.213,0.526,1
22.4,-0.681,-0.0441,0.14,0.697,1
22.4,-0.846,0.164,0.262,0.901,1
22.4,-0.885,0.161,0.651,1.11,1
22.4,-0.675,0.3,0.921,1.18,1
22.5,-0.24,0.676,1.09,1.31,1
22.5,-0.235,0.714,0.997,1.25,1
22.5,-0.341,0.579,0.914,1.13,1
22.5,-0.359,0.442,0.659,0.871,1
22.5,-0.249,0.492,0.212,0.59,1
22.6,0.106,0.778,0.0192,0.786,1
22.6,0.258,0.99,0.173,1.04,1
22.6,0.0727,1.09,0.281,1.13,1
22.6,-0.345,1.15,0.0902,1.2,1
22.6,-0.626,1.13,-0.481,1.38,1
22.6,-0.857,1.05,-1.19,1.8,1
22.7,-1.29,0.866,-1.26,2.0,1
22.7,-1.91,0.389,-0.557,2.03,1
22.7,-2.28,-0.435,0.275,2.34,1
22.7,-1.32,-1.61,-0.106,2.08,1
22.7,0.471,-1.3956666666666666,0.73,2.87,1
22.8,1.62,-1.1813333333333333,1.44,3.5,1
22.8,2.82,-0.967,-2.02,3.6,1
22.8,2.775,0.429,-1.77,3.68,1
22.8,2.73,1.27,0.379,3.51,1
22.8,2.685,1.17,1.46,4.07,1
22.8,2.64,0.197,-0.305,2.67,1
22.9,2.02,-0.377,-2.5,3.23,1
22.9,1.1,-1.17,-2.06,3.15,1
22.9,0.832,-1.99,-1.62,2.7,1
22.9,0.425,-1.88,-0.73,2.06,1
22.9,-0.0833,-0.716,-0.432,0.841,1
23.0,-0.145,0.649,-0.255,0.712,1
23.0,0.0874,1.34,-0.275,1.37,1
23.0,0.216,1.17,-0.442,1.27,1
23.0,0.116,0.465,-0.533,0.717,1
23.0,0.244,0.00326,-0.493,0.55,1
23.1,0.577,-0.174,-0.501,0.784,1
23.1,0.916,-0.253,-0.742,1.21,1
23.1,1.23,-0.278,-0.864,1.53,1
23.1,1.75,-0.17,-0.638,1.87,1
23.1,1.93,-0.199,-0.0894,1.94,1
23.1,1.93,-0.0696,0.315,1.96,1
23.2,1.43,0.178,0.46,1.52,1
23.2,0.257,0.213,-0.552,0.645,1
23.2,-1.04,-0.587,-1.24,1.72,1
23.2,-2.58,-2.3,-1.14,3.64,1
23.2,-2.45,-2.36,-1.44,4.22,1
23.3,-1.76,-2.42,-1.86,3.52,1
23.3,-0.599,0.131,0.316,0.69,1
23.3,2.0,0.65575,0.5694999999999999,4.74,1
23.3,2.45,1.1805,0.823,4.243333333333333,1
23.3,2.9,1.7052500000000002,-0.7184999999999999,3.7466666666666666,1
23.3,0.717,2.23,-2.26,3.25,1
23.4,-0.326,1.01,0.317,1.11,1
23.4,0.127,0.387,1.71,1.75,1
23.4,0.189,-0.666,1.6,1.74,1
23.4,-0.18,-1.76,1.46,2.3,1
23.4,-0.988,-2.26,0.833,2.6,1
23.5,-1.88,-0.636,0.636,2.08,1
23.5,-1.11,1.77,1.48,2.56,1
23.5,-1.28,2.26,1.41,2.96,1
23.5,-1.93,1.86,1.31,2.98,1
23.5,-2.26,0.416,1.36,2.68,1
23.5,-2.17,-0.987,1.41,2.77,1
23.6,-1.42,-1.63,1.19,2.47,1
23.6,-0.441,-0.683,0.876,1.2,1
23.6,0.0185,0.09,0.69,0.696,1
23.6,0.00266,0.34,0.65,0.734,1
23.6,-0.248,0.232,0.441,0.557,1
23.7,-0.769,-0.131,0.274,0.827,1
23.7,-1.18,-0.354,0.263,1.26,1
23.7,-1.23,-0.372,0.483,1.37,1
23.7,-1.01,-0.307,0.512,1.17,1
23.7,-0.894,-0.264,0.496,1.06,1
23.8,-0.956,0.174,0.6,1.14,1
23.8,-0.916,0.616,0.909,1.43,1
23.8,-0.599,0.889,1.03,1.49,1
23.8,-0.344,0.903,0.702,1.19,1
23.8,-0.0803,0.967,0.331,1.02,1
23.8,-0.067,0.89,-0.0108,0.893,1
23.9,-0.202,0.678,0.159,0.724,1
23.9,-0.438,0.645,0.226,0.811,1
23.9,-0.642,0.716,-0.225,0.988,1
23.9,-0.772,0.591,-1.24,1.58,1
23.9,-1.16,0.279,-1.29,1.76,1
24.0,-1.59,0.136,-0.693,1.74,1
24.0,-1.51,0.337,-0.857,1.77,1
24.0,-1.26,0.255,-1.37,1.88,1
24.0,-0.635,-1.06,-0.6,1.37,1
24.0,0.263,-2.41,0.596,2.49,1
24.0,0.493,-2.56,0.569,2.67,1
24.1,1.18,-1.06,-0.711,1.74,1
24.1,1.88,1.28,-0.336,2.3,1
24.1,2.32,1.13,1.08,3.79,1
24.1,2.3666666666666667,0.98,1.16,4.76,1
24.1,2.413333333333333,0.83,-0.727,4.32,1
24.2,2.46,-2.13,-2.2,3.93,1
24.2,1.42,-2.14,-2.25,4.59,1
24.2,1.59,-2.15,-1.92,3.94,1
24.2,1.51,-2.16,-2.0,3.31,1
24.2,1.07,-1.23,-1.75,2.39,1
24.2,0.869,-0.0922,-0.822,1.2,1
24.3,0.538,0.945,-0.262,1.12,1
24.3,-0.0496,1.54,-0.182,1.55,1
24.3,-0.622,1.53,-0.0579,1.65,1
24.3,-0.579,1.28,0.107,1.41,1
24.3,-0.0113,1.03,0.215,1.05,1
24.4,0.793,0.751,0.446,1.18,1
24.4,1.7,0.371,0.451,1.79,1
24.4,2.08,-0.0768,0.177,2.09,1
24.4,1.94,-0.308,0.433,2.01,1
24.4,1.19,-0.711,-0.521,1.48,1
24.5,-0.0721,-1.54,-1.48,2.13,1
24.5,-1.13,-1.8633333333333333,-2.09,3.62,1
24.5,-1.29,-2.1866666666666665,-2.07,4.15,1
24.5,-0.873,-2.51,-0.683,2.74,1
24.5,-1.35,-0.626,-0.824,1.7,1
24.5,-0.36,1.64,-0.546,1.76,1
24.6,1.67,1.8666666666666665,0.717,3.82,1
24.6,2.58,2.0933333333333333,-0.316,4.24,1
24.6,2.79,2.32,-0.8879999999999999,4.52,1
24.6,1.44,1.11,-1.46,2.33,1
24.6,0.781,0.32,0.0757,0.847,1
24.7,0.222,-0.428,1.72,1.79,1
24.7,-0.726,-1.25,1.5499999999999998,3.32,1
24.7,-1.73,-2.11,1.38,3.06,1
24.7,-1.9833333333333334,-1.87,0.084,3.59,1
24.7,-2.236666666666667,0.367,0.582,3.44,1
24.7,-2.49,2.46,1.74,3.91,1
24.8,-2.88,1.98,1.73,4.41,1
24.8,-2.465,1.5,0.956,3.54,1
24.8,-2.05,0.279,1.08,2.33,1
24.8,-1.23,-0.662,2.11,2.53,1
24.8,-0.0069,-0.304,2.03,2.05,1
24.9,0.646,0.338,1.47,1.64,1
24.9,0.401,0.194,1.09,1.17,1
24.9,0.0438,-0.0406,0.636,0.639,1
24.9,-0.245,0.123,0.414,0.497,1
24.9,-0.387,0.206,0.759,0.876,1
24.9,-0.42,0.0939,1.1,1.18,1
25.0,-0.166,0.0912,0.75,0.774,1
25.0,0.182,0.0989,0.542,0.58,1
25.0,0.542,0.0989,0.226,0.595,1
25.0,0.902,0.00541,-0.725,1.16,1
25.0,1.32,-0.361,-1.53,2.05,1
25.1,1.46,-0.719,-1.51,2.22,1
25.1,0.682,-0.865,-0.755,1.34,1
25.1,-0.522,-0.506,-0.407,0.833,1
25.1,-0.957,0.0427,-0.627,1.14,1
25.1,-0.821,0.474,-0.481,1.06,1
25.2,-0.881,0.716,-0.434,1.22,1
25.2,-1.49,0.865,0.136,1.73,1
25.2,-2.45,0.872,0.182,2.61,1
25.2,-2.5700000000000003,0.675,0.099,3.19,1
25.2,-2.69,0.305,0.138,2.71,1
25.2,-1.1,-0.379,-0.0337,1.16,1
25.3,0.799,-1.41,0.238,1.63,1
25.3,2.38,-1.82,0.155,3.0,1
25.3,2.38,-1.36,-0.901,3.72,1
25.3,2.38,-0.322,-1.16,3.64,1
25.3,2.38,0.351,-1.04,2.62,1
25.4,1.47,0.744,-0.39,1.69,1
25.4,0.84,0.957,0.066,1.28,1
25.4,0.119,0.784,-0.191,0.816,1
25.4,-0.285,0.551,-0.382,0.728,1
25.4,-0.637,0.524,-0.732,1.1,1
25.4,-0.726,0.699,-0.968,1.4,1
25.5,-0.358,0.535,-1.04,1.23,1
25.5,0.275,0.22,-0.823,0.895,1
25.5,0.543,-0.0371,-0.517,0.75,1
25.5,0.517,-0.694,0.0394,0.866,1
25.5,0.845,-0.921,0.0308,1.25,1
25.6,0.891,-0.924,-0.83,1.53,1
25.6,1.06,-0.59,-1.54,1.96,1
25.6,0.908,-0.268,-1.38,1.68,1
25.6,0.639,0.0295,-0.759,0.993,1
25.6,0.516,0.311,-0.166,0.625,1
25.6,0.484,0.599,0.32,0.834,1
25.7,0.419,0.896,0.895,1.33,1
25.7,0.271,0.913,1.16,1.5,1
25.7,0.444,0.745,0.361,0.94,1
25.7,0.435,0.429,-0.779,0.99,1
25.7,0.348,-0.273,-1.78,1.83,1
25.8,0.264,-1.8,-1.03,2.09,1
25.8,0.214,-1.825,-1.2,3.46,1
25.8,0.303,-1.85,-2.18,4.55,1
25.8,0.974,-1.875,1.29,4.24,1
25.8,0.0589,-1.9,1.6,2.49,1
25.9,0.362,-1.224,-1.05,3.27,1
25.9,0.888,-0.548,-1.13,3.736666666666667,1
25.9,0.208,0.12799999999999967,-0.939,4.203333333333333,1
25.9,0.0867,0.8039999999999998,-1.29,4.67,1
25.9,0.369,1.48,1.05,1.85,1
25.9,0.244,-0.539,0.796,2.91,1
26.0,0.61,-0.9,0.542,1.21,1
26.0,0.35,-1.98,-0.581,2.09,1
26.0,-1.02,-2.5,0.199,2.71,1
26.0,-0.941,-0.102,1.02,1.39,1
26.0,-0.0923,1.31,1.62,2.09,1
26.1,-0.754,1.4,1.28,2.04,1
26.1,-1.98,0.824,1.1,2.41,1
26.1,-2.24,0.822,1.23,2.69,1
26.1,-2.16,-0.0921,1.37,2.56,1
26.1,-1.47,-1.09,0.751,1.98,1
26.1,-0.534,-1.31,0.566,1.53,1
26.2,-0.0252,-1.05,0.815,1.33,1
26.2,-0.0572,-0.462,0.625,0.779,1
26.2,-0.289,-0.0947,0.481,0.569,1
26.2,-0.369,0.225,0.525,0.68,1
26.2,-0.302,0.419,0.409,0.659,1
26.3,-0.212,0.419,0.309,0.562,1
26.3,0.0257,0.185,0.546,0.578,1
26.3,0.101,0.00303,0.763,0.77,1
26.3,0.0784,-0.109,0.791,0.803,1
26.3,-0.019,-0.149,0.531,0.552,1
26.3,0.0797,0.0555,0.303,0.319,1
26.4,0.229,0.5,0.15,0.57,1
26.4,0.148,0.83,-0.238,0.876,1
26.4,-0.243,1.16,-0.0719,1.19,1
26.4,-0.497,1.5,0.175,1.59,1
26.4,-0.338,1.89,-0.31,1.95,1
26.5,-0.385,1.87,-0.906,2.11,1
26.5,-0.826,1.48,-1.54,2.29,1
26.5,-1.82,0.714,-0.722,2.09,1
26.5,-2.31,-0.434,-0.25,3.3,1
26.5,-2.8,-0.4182,-0.0501,3.87,1
26.6,-0.0498,-0.4024,0.807,5.06,1
26.6,1.97,-0.3866,0.702,5.023333333333333,1
26.6,1.9275,-0.3708,0.37499999999999994,4.986666666666666,1
26.6,1.885,-0.355,0.04799999999999993,4.95,1
26.6,1.8425,1.12,-0.279,3.24,1
26.6,1.8,2.35,0.8155,4.41,1
26.7,1.21,2.01,1.91,3.03,1
26.7,1.19,0.704,-1.08,1.75,1
26.7,0.829,-0.283,-1.1233333333333333,3.29,1
26.7,0.0191,-0.857,-1.1666666666666667,2.98,1
26.7,-0.334,-0.496,-1.21,1.35,1
26.8,-0.547,-0.014,-0.568,0.789,1
26.8,-0.181,0.613,-0.131,0.652,1
26.8,0.169,1.03,0.0142,1.05,1
26.8,0.191,0.945,-0.231,0.991,1
26.8,-0.222,0.504,-0.471,0.724,1
26.8,-0.174,0.0232,-0.456,0.489,1
26.9,0.0656,-0.409,-0.252,0.485,1
26.9,0.439,-0.582,-0.0396,0.73,1
26.9,0.689,-0.605,0.174,0.933,1
26.9,0.934,-0.429,0.193,1.05,1
26.9,1.36,-0.153,0.331,1.41,1
27.0,1.29,-0.164,0.167,1.31,1
27.0,0.348,-0.581,-0.377,0.775,1
27.0,-0.499,-0.946,-0.96,1.44,1
27.0,-0.971,-1.39,-1.13,2.04,1
27.0,-1.32,-1.65,-0.545,2.18,1
27.0,-0.59,-0.829,-0.708,1.24,1
27.1,0.0197,0.651,-1.34,1.49,1
27.1,0.384,1.64,-0.752,1.84,1
27.1,0.946,1.93,0.679,2.26,1
27.1,1.6,1.58,0.92,2.43,1
27.1,1.69,1.73,-1.05,2.64,1
27.2,0.992,1.71,-1.21,2.32,1
27.2,0.141,1.08,-0.449,1.18,1
27.2,0.125,-0.324,-0.248,0.427,1
27.2,0.36,-1.45,0.773,1.68,1
27.2,0.00529,-2.17,1.47,2.62,1
27.3,-0.699,-1.78,0.922,2.12,1
27.3,-1.22,0.0313,0.864,1.5,1
27.3,-0.587,1.77,1.66,2.5,1
27.3,-1.04,2.23,1.92,3.12,1
27.3,-1.95,1.8,1.9,3.27,1
27.3,-2.32,0.587,1.6,2.88,1
27.4,-2.07,-0.635,1.36,2.56,1
27.4,-1.39,-0.978,1.38,2.19,1
27.4,-1.0,-0.177,1.56,1.86,1
27.4,-0.719,0.233,1.17,1.39,1
27.4,-0.543,0.288,0.658,0.901,1
27.5,-0.653,0.226,0.398,0.798,1
27.5,-0.726,0.0185,0.23,0.762,1
27.5,-0.649,-0.0447,0.363,0.745,1
27.5,-0.337,-0.104,0.464,0.583,1
27.5,-0.121,-0.261,0.321,0.431,1
27.5,-0.169,-0.305,0.276,0.444,1
27.6,-0.21,0.0605,0.785,0.815,1
27.6,-0.087,0.783,0.571,0.973,1
27.6,-0.0842,1.33,-0.0304,1.33,1
27.6,-0.553,1.21,-0.356,1.38,1
27.6,-1.15,0.913,-0.293,1.49,1
27.7,-1.36,0.599,-0.454,1.55,1
27.7,-1.04,0.109,-0.624,1.22,1
27.7,-0.695,-0.318,-0.652,1.01,1
27.7,-0.302,-0.18,-1.09,1.15,1
27.7,0.0477,-0.123,-1.06,1.07,1
27.7,0.379,-0.771,0.157,0.873,1
27.8,-0.108,-1.42,0.755,1.61,1
27.8,-0.974,-1.51,-0.564,1.88,1
27.8,-1.3,-1.09,-1.13,2.04,1
27.8,-1.19,-0.523,-0.612,1.43,1
27.8,-0.721,0.28,0.131,0.785,1
27.9,0.982,1.61,0.0897,1.89,1
27.9,1.4565,2.14,0.583,3.75,1
27.9,1.931,0.938,0.176,4.64,1
27.9,2.4055,-1.36,-0.763,4.86,1
27.9,2.88,-1.5,-2.18,4.59,1
28.0,2.3,-1.64,-2.0500000000000003,4.3,1
28.0,0.93,-1.28,-1.9200000000000002,3.44,1
28.0,-0.388,-0.808,-1.79,2.0,1
28.0,-0.998,-0.415,0.16,1.09,1
28.0,-1.42,-0.0776,1.08,1.79,1
28.0,-1.24,0.62,0.573,1.5,1
28.1,-0.568,1.39,-0.144,1.51,1
28.1,0.138,1.49,-0.277,1.52,1
28.1,0.826,1.18,-0.119,1.45,1
28.1,1.39,0.582,-0.0298,1.5,1
28.1,1.39,-0.146,-0.223,1.42,1
28.2,1.02,-0.623,-0.454,1.28,1
28.2,0.898,-0.524,-0.647,1.22,1
28.2,0.964,-0.169,-0.698,1.2,1
28.2,1.04,0.194,-0.651,1.25,1
28.2,1.06,0.439,-0.596,1.29,1
28.2,0.318,0.421,-0.236,0.578,1
28.3,-0.399,0.196,-0.196,0.486,1
28.3,-0.898,-0.107,-0.584,1.08,1
28.3,-1.11,-0.223,-0.909,1.45,1
28.3,-0.314,0.0635,-1.04,1.08,1
28.3,0.48,0.13,-0.713,0.87,1
28.4,1.3,-0.356,1.14,1.76,1
28.4,1.81,-0.73,0.423,2.0,1
28.4,1.35,0.792,-2.14,2.65,1
28.4,0.596,2.31,-1.23,2.68,1
28.4,0.507,2.27,-0.375,2.36,1
28.4,0.253,1.03,-1.03,1.47,1
28.5,0.197,-0.993,-1.15,1.53,1
28.5,0.439,-1.89,-0.597,2.03,1
28.5,-0.0447,-1.6666666666666665,-0.396,2.66,1
28.5,-0.836,-1.4433333333333334,-0.309,2.92,1
28.5,-1.46,-1.22,0.957,2.13,1
28.6,-0.736,1.52,2.5,3.02,1
28.6,-1.08,2.51,2.09,3.86,1
28.6,-1.27,2.56,1.68,3.32,1
28.6,-1.36,2.22,1.05,2.81,1
28.6,-1.76,0.934,2.04,2.85,1
28.6,-1.75,-0.338,1.72,2.48,1
28.7,-1.18,-1.15,1.13,2.0,1
28.7,-0.264,-0.975,0.636,1.19,1
28.7,0.221,-0.279,0.968,1.03,1
28.7,0.537,0.0102,0.758,0.929,1
28.7,0.555,0.421,0.445,0.827,1
28.8,0.381,0.629,0.228,0.77,1
28.8,-0.00282,0.446,0.348,0.565,1
28.8,-0.266,0.0242,0.336,0.429,1
28.8,-0.328,-0.464,0.534,0.78,1
28.8,-0.283,-0.628,0.635,0.937,1
28.9,-0.0963,-0.399,0.329,0.527,1
28.9,-0.00127,-0.218,0.553,0.594,1
28.9,0.17,-0.0352,0.611,0.635,1
28.9,0.288,-0.0163,-0.288,0.408,1
28.9,0.294,0.129,-1.01,1.06,1
28.9,0.101,0.325,-0.9,0.962,1
29.0,-0.456,0.492,-0.145,0.686,1
29.0,-1.06,0.869,0.365,1.42,1
29.0,-1.07,1.45,-0.231,1.82,1
29.0,-0.924,1.74,-0.588,2.06,1
29.0,-0.888,1.52,-0.384,1.8,1
29.1,-1.19,0.849,-0.13,1.47,1
29.1,-1.75,-0.173,-0.0194,1.76,1
29.1,-1.76,-0.716,-0.655,2.01,1
29.1,-0.82,-0.98,-1.09,1.68,1
29.1,0.355,-1.57,-0.282,1.63,1
29.1,0.666,-2.0,0.283,2.13,1
29.2,0.462,-2.06,0.254,2.12,1
29.2,0.685,-1.18,-0.589,1.49,1
29.2,1.19,0.542,-0.301,1.34,1
29.2,1.48,1.76,-0.0736,2.3,1
29.2,1.4,2.2,1.12,2.84,1
29.3,2.05,1.55,0.677,2.66,1
29.3,2.12,0.325,-0.243,2.16,1
29.3,1.93,-0.834,-1.48,2.57,1
29.3,1.8,-1.28,-1.74,2.81,1
29.3,1.21,-1.18,-1.28,2.12,1
29.3,0.419,-1.34,-1.08,1.77,1
29.4,-0.0782,-1.08,-1.16,1.58,1
29.4,-0.241,-0.297,-0.615,0.724,1
29.4,-0.168,0.553,0.172,0.603,1
29.4,0.0453,1.2,0.484,1.3,1
29.4,0.0824,1.12,0.17,1.13,1
29.5,0.219,0.656,-0.369,0.784,1
29.5,0.363,0.0508,-0.782,0.864,1
29.5,0.659,-0.324,-0.934,1.19,1
29.5,0.898,-0.428,-0.443,1.09,1
29.5,1.16,-0.267,-0.0206,1.19,1
29.6,1.4,0.0843,0.166,1.41,1
29.6,1.07,0.373,-0.144,1.14,1
29.6,0.127,0.31,-0.82,0.886,1
29.6,-1.59,-0.79,-1.67,2.44,1
29.6,-2.45,-2.12,-1.76,3.69,1
29.6,-1.56,-2.1,-1.9,3.67,1
29.7,-0.348,-2.08,-2.1,2.98,1
29.7,1.25,-0.606,-1.19,1.83,1
29.7,2.08,0.00551,1.45,3.37,1
29.7,2.91,0.641,1.02,3.15,1
29.7,1.67,1.97,-1.11,2.81,1
29.8,0.366,1.8599999999999999,-1.01,3.14,1
29.8,-1.02,1.75,0.134,3.45,1
29.8,-1.63,1.64,1.21,2.61,1
29.8,-1.37,0.0821,0.92,1.65,1
29.8,-0.668,-0.692,0.294,1.01,1
29.8,-0.291,-0.839,0.699,1.13,1
29.9,-0.492,-0.629,1.53,1.72,1
29.9,-0.822,0.0569,1.56,1.76,1
29.9,-1.23,0.798,1.22,1.91,1
29.9,-1.57,0.98,0.969,2.09,1
29.9,-1.66,0.655,1.08,2.09,1
30.0,-1.63,0.0656,1.2,2.02,1
30.0,-1.61,-0.625,1.21,2.11,1
30.0,-1.11,-0.844,0.415,1.45,1
30.0,-0.71,-0.618,0.546,1.09,1
30.0,-0.395,-0.516,0.335,0.731,1
30.0,-0.232,-0.263,0.144,0.379,1
30.1,-0.113,0.134,0.304,0.351,1
30.1,-0.185,0.403,0.549,0.705,1
30.1,-0.359,0.591,0.741,1.01,1
30.1,-0.48,0.606,0.774,1.09,1
30.1,-0.648,0.309,0.792,1.07,1
30.2,-0.705,-0.173,0.88,1.14,1
30.2,-0.561,-0.455,0.78,1.06,1
30.2,-0.377,-0.439,0.639,0.863,1
30.2,-0.292,-0.113,0.683,0.751,1
30.2,-0.0498,0.31,0.447,0.547,1
30.3,0.23,0.509,0.278,0.624,1
30.3,0.342,0.754,0.438,0.937,1
30.3,0.26,1.09,0.342,1.17,1
30.3,-0.13,1.26,0.326,1.31,1
30.3,-0.605,1.27,0.301,1.44,1
30.3,-0.995,1.14,0.0566,1.51,1
30.4,-1.12,0.713,-0.591,1.45,1
30.4,-1.17,0.259,-1.1,1.63,1
30.4,-1.16,-0.0271,-1.05,1.56,1
30.4,-0.864,0.103,-0.967,1.3,1
30.4,-0.395,0.394,-0.742,0.928,1
30.5,-0.212,0.279,-0.168,0.388,1
30.5,-0.0862,-0.658,0.564,0.871,1
30.5,-0.124,-1.72,1.47,2.26,1
30.5,-0.192,-1.77,1.42,2.27,1
30.5,0.626,-0.322,-0.265,0.752,1
30.5,1.31,0.792,-0.483,1.6,1
30.6,2.06,1.26,0.175,2.43,1
30.6,2.64,1.06,-0.262,2.86,1
30.6,2.87,-0.663,-1.72,3.41,1
30.6,2.79,-0.8986666666666667,-1.65,4.28,1
30.6,2.8,-1.1343333333333334,-1.62,4.38,1
30.7,2.6,-1.37,-2.32,3.74,1
30.7,1.71,-1.13,-2.14,2.96,1
30.7,0.377,-0.624,-1.4,1.58,1
30.7,-0.451,0.19,-0.257,0.553,1
30.7,-0.728,0.993,0.739,1.44,1
30.7,-0.617,1.68,0.827,1.97,1
30.8,-0.247,1.89,0.445,1.96,1
30.8,-0.141,1.12,-0.0303,1.13,1
30.8,0.131,0.423,-0.417,0.608,1
30.8,0.528,-0.267,-0.915,1.09,1
30.8,0.656,-0.866,-1.03,1.5,1
30.9,0.706,-1.4,-1.06,1.89,1
30.9,0.817,-1.49,-0.799,1.88,1
30.9,1.27,-0.797,-0.625,1.62,1
30.9,1.22,-0.0268,-0.645,1.38,1
30.9,0.284,-0.0114,-0.109,0.304,1
31.0,-0.569,-0.0673,0.344,0.668,1
31.0,-1.42,0.022,-0.746,1.61,1
31.0,-1.41,0.402,-1.64,2.19,1
31.0,-0.0193,0.586,-0.885,1.06,1
31.0,1.29,0.649,-0.781,1.64,1
31.0,0.974,0.642,-0.134,1.17,1
31.1,1.37,0.363,0.589,1.53,1
31.1,1.73,-0.479,-0.132,1.8,1
31.1,0.973,-0.0882,-1.21,1.55,1
31.1,-0.516,0.702,-1.11,1.42,1
31.1,-1.32,0.825,0.0888,1.56,1
31.2,-1.5,0.472,1.14,1.94,1
31.2,-1.49,0.483,1.18,1.96,1
31.2,-1.24,0.734,1.09,1.81,1
31.2,-1.5,1.11,1.75,2.56,1
31.2,-1.89,1.33,2.21,3.2,1
31.2,-1.93,1.01,1.64,2.73,1
31.3,-1.7,-0.184,0.949,1.95,1
31.3,-0.711,-1.46,1.19,2.01,1
31.3,0.318,-2.16,0.887,2.36,1
31.3,0.278,-1.24,0.608,1.41,1
31.3,0.16,-0.0311,0.797,0.813,1
31.4,-0.149,0.466,0.239,0.544,1
31.4,-0.428,0.35,0.0493,0.555,1
31.4,-0.702,0.259,0.37,0.835,1
31.4,-0.678,0.193,0.444,0.833,1
31.4,-0.519,0.15,0.637,0.836,1
31.4,-0.412,0.027,0.625,0.749,1
31.5,-0.467,-0.0769,0.687,0.835,1
31.5,-0.831,-0.204,0.774,1.15,1
31.5,-0.89,-0.102,0.901,1.27,1
31.5,-0.875,-0.0435,0.885,1.24,1
31.5,-0.629,0.0687,0.674,0.925,1
31.6,-0.466,0.429,0.313,0.707,1
31.6,-0.264,0.694,-0.0042,0.742,1
31.6,-0.0165,0.987,-0.392,1.06,1
31.6,-0.152,1.29,-0.322,1.34,1
31.6,-0.65,1.34,0.0847,1.49,1
31.7,-1.09,1.12,0.26,1.59,1
31.7,-1.06,0.812,-0.408,1.4,1
31.7,-0.66,0.384,-1.6,1.77,1
31.7,-0.476,-0.17,-2.1,2.16,1
31.7,-0.895,-0.952,-1.12,1.72,1
31.7,-1.26,-1.77,0.212,2.18,1
31.8,-0.347,-2.25,-0.08,2.28,1
31.8,1.21,-2.12,-0.0354,2.44,1
31.8,1.88,-1.39,-0.217,2.35,1
31.8,2.0,-0.159,-1.48,2.5,1
31.8,1.81,0.809,-0.613,2.08,1
31.9,1.48,1.61,1.16,2.48,1
31.9,1.68,2.17,2.05,3.42,1
31.9,2.06,1.56,0.316,2.6,1
31.9,1.45,-0.079,-1.71,2.24,1
31.9,1.29,-1.46,-1.855,3.32,1
31.9,1.22,-1.98,-2.0,3.07,1
32.0,0.794,-1.69,-0.509,1.94,1
32.0,0.815,-0.448,-0.357,0.996,1
32.0,0.448,0.516,-0.336,0.761,1
32.0,0.101,0.965,-0.206,0.992,1
32.0,0.0796,0.928,-0.168,0.946,1
32.1,0.0559,0.502,0.0469,0.508,1
32.1,0.0453,0.336,0.148,0.371,1
32.1,0.365,0.106,-0.219,0.438,1
32.1,0.922,-0.299,-0.662,1.17,1
32.1,1.39,-0.597,-0.834,1.72,1
32.1,1.41,-0.696,-0.902,1.81,1
32.2,1.22,-0.474,-0.944,1.62,1
32.2,1.18,0.108,-0.726,1.39,1
32.2,0.939,0.544,-0.226,1.11,1
32.2,0.417,0.734,0.303,0.897,1
32.2,-0.415,0.235,0.179,0.509,1
32.3,-1.29,-1.34,-0.185,1.87,1
32.3,-1.41,-2.3,-0.982,2.88,1
32.3,-0.998,-1.97,-1.29,2.56,1
32.3,-0.658,-0.564,-0.204,0.89,1
32.3,0.584,0.506,1.64,1.81,1
32.4,1.94,0.479,1.98,2.81,1
32.4,2.22,1.55,-0.872,2.85,1
32.4,1.46,1.77,-1.78,4.1,1
32.4,0.887,1.99,-1.45,3.97,1
32.4,0.552,2.21,-1.38,2.66,1
32.4,0.773,0.71,-1.05,1.49,1
32.5,1.31,-0.978,0.262,1.65,1
32.5,1.5,-1.62,1.0,2.42,1
32.5,0.625,-2.29,0.308,2.4,1
32.5,-1.31,-2.06,0.026,2.44,1
32.5,-1.96,0.206,1.33,2.38,1
32.6,-0.943,2.32,1.76,3.72,1
32.6,-0.742,2.195,2.19,3.79,1
32.6,-1.18,2.07,1.48,2.8,1
32.6,-2.32,0.405,1.42,2.75,1
32.6,-2.5149999999999997,-0.875,1.64,3.59,1
32.6,-2.71,-1.76,1.49,3.56,1
32.7,-1.48,-1.83,0.643,2.44,1
32.7,0.0706,-0.552,0.337,0.651,1
32.7,0.662,0.0486,0.625,0.911,1
32.7,0.455,0.0722,0.521,0.695,1
32.7,0.00362,-0.127,-0.0149,0.128,1
32.8,-0.933,-0.477,0.0273,1.05,1
32.8,-1.43,-0.706,0.298,1.63,1
32.8,-1.37,-0.643,0.347,1.55,1
32.8,-1.02,-0.364,0.396,1.15,1
32.8,-0.671,-0.0746,0.354,0.762,1
32.8,-0.621,0.121,0.334,0.715,1
32.9,-0.799,0.488,0.601,1.11,1
32.9,-0.82,0.734,0.879,1.41,1
32.9,-0.691,0.746,0.774,1.28,1
32.9,-0.448,0.666,0.436,0.914,1
32.9,-0.21,0.558,0.24,0.643,1
33.0,0.0675,0.626,-0.145,0.646,1
33.0,0.349,0.749,-0.588,1.01,1
33.0,0.0899,0.6,-0.417,0.736,1
33.0,-0.432,0.461,-0.24,0.676,1
33.0,-0.85,0.464,-0.729,1.21,1
33.1,-1.22,0.541,-0.888,1.6,1
33.1,-1.61,0.46,-0.322,1.71,1
33.1,-2.0,0.144,0.139,2.01,1
33.1,-1.92,-0.187,-0.33,1.96,1
33.1,-1.38,-0.784,-0.66,1.72,1
33.1,-0.78,-2.01,-0.108,2.16,1
33.2,0.209,-1.93,0.248,2.68,1
33.2,1.3,-1.85,-0.0463,2.26,1
33.2,2.49,-0.0678,-0.552,2.55,1
33.2,2.5333333333333337,1.59,0.945,3.58,1
33.2,2.5766666666666667,1.5466666666666666,1.7,4.86,1
33.3,2.62,1.5033333333333334,0.679,4.01,1
33.3,2.09,1.46,-1.55,2.99,1
33.3,1.66,-0.457,-1.94,2.59,1
33.3,1.42,-1.85,-1.63,2.85,1
33.3,1.61,-2.135,-1.05,3.29,1
33.3,1.88,-2.42,-1.18,3.28,1
33.4,2.09,-0.999,-1.21,2.61,1
33.4,1.91,0.235,-1.06,2.19,1
33.4,1.2,1.09,-0.909,1.86,1
33.4,0.503,1.32,-0.676,1.57,1
33.4,0.115,1.15,-0.179,1.17,1
33.5,0.101,1.03,0.088,1.04,1
33.5,0.184,0.768,-0.0876,0.794,1
33.5,0.176,0.281,0.0796,0.341,1
33.5,0.665,-0.197,-0.141,0.708,1
33.5,1.29,-0.274,-0.321,1.35,1
33.5,1.53,-0.0958,-0.226,1.55,1
33.6,1.18,-0.0512,-0.283,1.21,1
33.6,0.205,-0.334,-1.05,1.12,1
33.6,-1.19,-1.11,-1.68,2.34,1
33.6,-2.0,-1.98,-0.935,2.97,1
33.6,-1.21,-1.98,-0.85,2.47,1
33.7,-0.498,-0.81,-2.02,2.24,1
33.7,0.539,1.21,-0.818,1.56,1
33.7,2.58,2.65,1.45,3.97,1
33.7,2.44,2.04,1.19,3.98,1
33.7,2.3,0.863,-2.38,3.42,1
33.8,1.18,0.187,-2.5,2.77,1
33.8,0.295,-0.344,-0.703,0.836,1
33.8,-0.651,-0.906,0.868,1.41,1
33.8,-1.24,-0.687,1.04,1.76,1
33.8,-1.32,-0.447,1.02,1.73,1
33.8,-1.38,0.0156,1.14,1.79,1
33.9,-1.16,1.3,1.58,2.35,1
33.9,-0.793,1.94,2.0,2.9,1
33.9,-0.434,2.01,1.47,2.53,1
33.9,-0.383,1.63,0.891,1.89,1
33.9,-0.703,0.689,1.21,1.56,1
34.0,-1.34,-0.312,1.18,1.81,1
34.0,-1.62,-1.22,0.729,2.15,1
34.0,-1.0,-1.31,0.371,1.69,1
34.0,-0.641,-0.514,0.645,1.04,1
34.0,-0.602,-0.261,-0.239,0.698,1
34.0,-0.626,-0.191,-0.521,0.836,1
34.1,-0.612,-0.0887,-0.163,0.64,1
34.1,-0.733,-0.0848,0.0838,0.743,1
34.1,-0.8,-0.141,-0.0459,0.814,1
34.1,-0.98,-0.436,-0.0221,1.07,1
34.1,-1.08,-0.655,0.468,1.35,1
34.2,-0.926,-0.43,0.62,1.19,1
34.2,-0.675,-0.155,0.268,0.743,1
34.2,-0.378,-0.0741,0.0697,0.391,1
34.2,-0.0588,0.184,0.246,0.313,1
34.2,0.0682,0.358,0.302,0.473,1
34.2,0.208,0.203,0.242,0.379,1
34.3,0.421,0.138,0.386,0.588,1
34.3,0.723,0.421,0.238,0.869,1
34.3,0.614,0.963,0.0226,1.14,1
34.3,0.177,1.36,-0.368,1.42,1
34.3,-0.556,1.27,-0.166,1.4,1
34.4,-1.91,1.33,0.00883,2.33,1
34.4,-1.27,1.1,-0.0167,3.87,1
34.4,-0.6299999999999999,0.481,0.96,3.8666666666666667,1
34.4,0.010000000000000009,0.543,0.318,3.8633333333333333,1
34.4,0.6500000000000001,1.93,-1.29,3.86,1
34.5,1.29,1.56,0.235,2.04,1
34.5,1.545,-0.811,1.3125,2.1866666666666665,1
34.5,1.7999999999999998,-1.3206666666666667,2.39,2.3333333333333335,1
34.5,2.0549999999999997,-1.8303333333333334,-2.51,2.48,1
34.5,2.3099999999999996,-2.34,-2.145,2.6266666666666665,1
34.5,2.5649999999999995,-0.895,-1.78,2.7733333333333334,1
34.6,2.82,0.0454,0.752,2.92,1
34.6,-0.214,0.388,0.269,0.518,1
34.6,-0.5293333333333333,-0.893,-1.92,3.79,1
34.6,-0.8446666666666666,-1.15,-2.2249999999999996,4.24,1
34.6,-1.16,-0.281,-2.53,2.8,1
34.7,-0.373,0.484,-1.41,1.54,1
34.7,-0.0594,0.868,-0.429,0.97,1
34.7,0.134,0.946,-0.172,0.971,1
34.7,0.171,0.702,-0.118,0.732,1
34.7,0.298,0.104,-0.533,0.62,1
34.7,0.531,-0.229,-0.97,1.13,1
34.8,0.495,-0.361,-1.05,1.21,1
34.8,0.395,-0.156,-0.153,0.451,1
34.8,0.492,-0.101,0.926,1.05,1
34.8,0.892,0.123,1.37,1.64,1
34.8,1.42,0.533,0.786,1.71,1
34.9,1.82,0.867,0.292,2.03,1
34.9,1.51,0.886,0.285,1.77,1
34.9,0.151,0.612,-0.48,0.792,1
34.9,-1.87,-0.151,-2.08,2.8,1
34.9,-2.5,-1.98,-1.75,3.63,1
34.9,-0.257,-1.4212500000000001,-2.135,5.01,1
35.0,1.25,-0.8625,-2.52,4.18,1
35.0,0.527,-0.30374999999999996,-0.716,3.35,1
35.0,2.15,0.255,2.06,2.99,1
35.0,2.89,2.39,2.11,4.3,1
35.0,1.69,2.4366666666666665,-1.43,4.16,1
35.1,-0.345,2.4833333333333334,-2.51,4.79,1
35.1,-2.04,2.53,-1.41,3.54,1
35.1,-1.23,1.07,1.05,1.94,1
35.1,0.0303,0.199,0.987,3.92,1
35.1,-0.368,-0.498,0.924,3.65,1
35.2,-1.04,-0.877,0.861,1.61,1
35.2,-2.03,0.24,-0.368,2.08,1
35.2,-1.4,1.44,0.334,2.03,1
35.2,-0.608,1.77,0.696,2.0,1
35.2,-0.72,0.116,1.38,1.56,1
35.2,-1.11,-1.19,1.66,2.33,1
35.3,-0.339,-0.403,1.65,1.73,1
35.3,0.699,0.67,2.29,2.49,1
35.3,0.24,0.546,1.64,1.75,1
35.3,-0.225,0.458,0.127,0.526,1
35.3,-0.687,0.488,-0.18,0.861,1
35.4,-0.532,0.247,0.159,0.607,1
35.4,-0.511,-0.417,0.555,0.862,1
35.4,-0.499,-0.815,0.73,1.2,1
35.4,-0.233,-0.59,0.547,0.838,1
35.4,-0.002,-0.116,0.512,0.525,1
35.4,-0.0219,0.317,0.615,0.693,1
35.5,-0.296,0.372,0.73,0.871,1
35.5,-0.62,0.127,0.76,0.989,1
35.5,-0.682,-0.222,0.545,0.901,1
35.5,-0.133,-0.236,0.00558,0.271,1
35.5,0.492,0.0719,-0.517,0.718,1
35.6,0.567,0.583,-0.385,0.899,1
35.6,0.0611,0.942,-0.229,0.972,1
35.6,-0.63,1.11,-0.752,1.48,1
35.6,-1.14,1.11,-1.01,1.88,1
35.6,-1.5,0.929,-1.04,2.04,1
35.6,-2.1,0.434,-0.122,2.15,1
35.7,-2.39,-0.166,0.722,2.5,1
35.7,-1.32,-0.761,0.589,1.63,1
35.7,0.0704,-1.19,0.812,1.44,1
35.7,0.21,-1.15,1.15,1.64,1
35.7,0.828,-0.126,0.162,0.853,1
35.8,1.06,1.29,1.15,2.03,1
35.8,2.29,2.0,0.639,3.11,1
35.8,2.1566666666666667,1.61,-0.514,3.83,1
35.8,2.0233333333333334,0.507,-0.757,3.82,1
35.8,1.89,-1.76,-1.43,2.95,1
35.9,0.341,-1.665,-1.376,4.35,1
35.9,1.04,-1.5699999999999998,-1.3219999999999998,5.16,1
35.9,1.46,-1.4749999999999999,-1.2679999999999998,4.86,1
35.9,1.14,-1.38,-1.214,3.14,1
35.9,0.389,0.569,-1.16,1.35,1
35.9,-0.162,1.68,0.689,1.83,1
36.0,-0.859,1.99,1.48,2.63,1
36.0,-1.27,1.95,0.95,2.52,1
36.0,-0.82,1.74,-0.131,1.93,1
36.0,0.0663,0.978,-1.15,1.51,1
36.0,0.72,-0.0862,-1.35,1.54,1
36.1,1.48,-0.902,-1.14,2.07,1
36.1,2.22,-1.48,-0.554,2.73,1
36.1,2.29,-1.76,-0.577,2.94,1
36.1,1.79,-1.4,-0.986,2.48,1
36.1,0.915,-0.563,-0.172,1.09,1
36.1,-0.123,0.05,1.13,1.14,1
36.2,-1.34,-0.0263,0.281,1.37,1
36.2,-1.6366666666666667,-1.19,-2.4,4.28,1
36.2,-1.9333333333333333,-1.85,-1.23,5.11,1
36.2,-2.23,-1.11,-0.365,2.52,1
36.2,0.0323,0.512,-0.675,0.848,1
36.3,0.998,0.9746666666666666,-0.117,2.98,1
36.3,2.43,1.4373333333333331,-0.196,4.3,1
36.3,2.316666666666667,1.9,-0.343,3.97,1
36.3,2.203333333333333,-0.0378,-1.45,3.45,1
36.3,2.09,-1.05,-1.92,3.02,1
36.3,1.06,-1.04,-0.349,1.53,1
36.4,-0.0868,-0.667,1.05,1.24,1
36.4,-1.03,-0.811,1.51,2.0,1
36.4,-2.05,-0.493,1.13,2.39,1
36.4,-2.48,0.924,0.522,2.69,1
36.4,-1.37,1.98,1.83,3.03,1
36.5,-0.858,2.04,2.43,3.29,1
36.5,-1.56,1.69,2.35,3.29,1
36.5,-1.85,1.13,1.6,2.69,1
36.5,-2.29,0.313,0.224,2.32,1
36.5,-2.84,-1.23,0.549,3.14,1
36.6,-2.95,-2.48,1.48,4.13,1
36.6,-1.59,-1.78,0.87,2.54,1
36.6,-0.369,0.301,1.04,1.15,1
36.6,0.0992,1.08,0.794,1.35,1
36.6,0.197,1.11,0.355,1.18,1
36.6,0.209,0.608,0.349,0.731,1
36.7,0.0185,0.00922,0.307,0.308,1
36.7,-0.0884,-0.241,0.174,0.31,1
36.7,0.104,-0.108,-0.0219,0.152,1
36.7,-0.00916,-0.282,0.421,0.507,1
36.7,-0.163,-0.226,0.867,0.911,1
36.8,-0.143,0.249,1.08,1.11,1
36.8,0.217,0.687,1.03,1.25,1
36.8,0.579,0.814,1.02,1.43,1
36.8,1.25,1.0,0.188,1.61,1
36.8,1.62,1.46,-1.37,2.57,1
36.8,1.45,1.82,-2.19,3.2,1
36.9,0.197,1.45,-1.13,1.85,1
36.9,-1.55,0.716,-0.439,1.76,1
36.9,-2.85,-0.271,-0.598,2.93,1
36.9,-1.9820000000000002,-1.34,1.24,4.18,1
36.9,-1.114,-1.7,0.652,3.8,1
37.0,-0.246,-1.85,-0.271,1.89,1
37.0,3.0,-1.49,0.0564,3.35,1
37.0,2.61,-2.58,-0.742,3.74,1
37.0,1.3,-1.8450000000000002,-1.471,4.95,1
37.0,1.81,-1.11,-2.2,3.06,1
37.0,2.1533333333333333,0.974,-0.314,3.24,1
37.1,2.4966666666666666,2.02,1.54,4.46,1
37.1,2.84,1.74,1.59,3.69,1
37.1,1.41,0.359,-0.383,1.51,1
37.1,0.23,-0.808,-1.46,1.69,1
37.1,-0.1,-1.15,-1.86,2.2,1
37.2,-0.219,-0.934,-1.83,2.07,1
37.2,-0.0162,-0.00352,-1.35,1.35,1
37.2,0.336,0.632,-1.12,1.33,1
37.2,0.431,0.682,-0.661,1.04,1
37.2,0.069,0.614,-0.396,0.734,1
37.3,-0.414,0.253,-0.283,0.561,1
37.3,-0.352,-0.00319,-0.355,0.499,1
37.3,0.0883,0.00156,-0.388,0.398,1
37.3,0.327,0.00259,-0.419,0.532,1
37.3,0.147,0.00216,-0.0701,0.163,1
37.3,0.192,-0.0318,0.287,0.347,1
37.4,0.681,-0.243,0.0994,0.73,1
37.4,0.924,-0.3,0.113,0.978,1
37.4,0.725,-0.0231,0.193,0.751,1
37.4,0.243,0.385,0.134,0.475,1
37.4,-0.514,0.329,-0.534,0.811,1
37.5,-1.87,-0.503,-1.66,2.55,1
37.5,-2.77,-2.03,-1.83,3.9,1
37.5,-0.309,-1.6153333333333333,-0.428,3.06,1
37.5,1.34,-1.2006666666666668,-0.852,3.35,1
37.5,1.54,-0.786,-0.832,1.92,1
37.5,1.7466666666666668,1.6,0.719,4.98,1
37.6,1.9533333333333334,2.73,2.27,4.92,1
37.6,2.16,2.493333333333333,-1.72,4.23,1
37.6,1.04,2.256666666666667,-2.19,4.07,1
37.6,0.206,2.02,-1.3,2.41,1
37.6,0.456,0.333,-0.378,0.679,1
37.7,0.777,-0.645,0.671,1.21,1
37.7,1.02,-0.5,0.811,1.39,1
37.7,0.948,-0.955,0.17,1.36,1
37.7,0.294,-1.73,-0.0351,1.76,1
37.7,-0.765,-1.95,-0.238,2.11,1
37.7,-0.807,-0.118,0.133,0.827,1
37.8,-0.788,1.23,1.03,1.79,1
37.8,-1.81,1.86,2.07,3.32,1
37.8,-2.41,2.29,2.23,4.0,1
37.8,-2.35,1.82,1.93,3.54,1
37.8,-1.71,0.94,1.69,2.58,1
37.9,-1.02,0.0291,1.81,2.07,1
37.9,-0.613,-0.26,1.26,1.42,1
37.9,-0.33,-0.0857,1.09,1.14,1
37.9,-0.206,0.278,0.97,1.03,1
37.9,-0.208,0.384,0.687,0.814,1
37.9,-0.306,0.153,0.4,0.527,1
38.0,-0.525,-0.28,0.036,0.596,1
38.0,-0.804,-0.719,-0.151,1.09,1
38.0,-0.852,-0.927,0.0745,1.26,1
38.0,-0.629,-0.936,0.257,1.16,1
38.0,-0.53,-0.792,0.246,0.984,1
38.1,-0.613,-0.483,0.0572,0.782,1
38.1,-0.806,-0.475,0.103,0.942,1
38.1,-0.804,-0.547,0.251,1.0,1
38.1,-0.761,-0.572,0.281,0.993,1
38.1,-0.706,-0.336,0.264,0.826,1
38.2,-0.519,0.273,0.061,0.589,1
38.2,-0.408,0.733,0.0464,0.84,1
38.2,-0.483,0.889,0.225,1.04,1
38.2,-0.846,0.994,0.288,1.34,1
38.2,-1.16,1.08,-0.134,1.59,1
38.2,-0.985,1.03,-0.962,1.72,1
38.3,-0.631,0.582,-1.02,1.33,1
38.3,-0.512,0.174,-0.017,0.542,1
38.3,-0.331,0.106,0.547,0.648,1
38.3,0.0126,0.141,0.0443,0.149,1
38.3,0.297,-0.392,-1.25,1.34,1
38.4,0.0574,-1.36,-1.26,1.86,1
38.4,-0.832,-1.97,-0.956,2.34,1
38.4,-1.35,-1.77,-0.438,2.27,1
38.4,-0.0437,0.135,-0.0559,0.152,1
38.4,1.57,2.28,1.15,3.0,1
38.4,2.73,2.5149999999999997,1.365,5.02,1
38.5,2.37,2.75,1.58,5.01,1
38.5,2.01,0.229,-0.687,3.41,1
38.5,1.65,-0.614,-1.2813333333333334,4.49,1
38.5,1.08,-1.4569999999999999,-1.8756666666666668,3.995,1
38.5,0.945,-2.3,-2.47,3.5,1
38.6,1.43,-0.588,-1.49,2.14,1
38.6,0.979,-0.257,-0.774,1.27,1
38.6,0.348,0.459,-0.179,0.603,1
38.6,-0.117,1.35,0.593,1.48,1
38.6,-0.315,1.66,0.917,1.92,1
38.6,-0.853,1.56,0.631,1.88,1
38.7,-1.08,1.11,-0.222,1.56,1
38.7,-0.573,0.325,-1.14,1.31,1
38.7,0.0481,-0.321,-1.43,1.47,1
38.7,0.414,-0.696,-0.934,1.24,1
38.7,0.955,-0.72,-0.422,1.27,1
38.8,1.51,-0.786,-0.149,1.71,1
38.8,1.45,-0.944,0.282,1.75,1
38.8,0.975,-0.909,0.972,1.65,1
38.8,-0.34,-1.3,0.453,1.42,1
38.8,-0.982,-1.61,-0.289,1.91,1
38.9,-1.19,-1.81,-1.28,2.52,1
38.9,-0.68,-1.21,-1.51,2.05,1
38.9,0.605,0.341,-0.181,0.718,1
38.9,1.46,0.834,-1.45,2.22,1
38.9,2.63,0.941,-2.24,3.58,1
38.9,2.375,1.87,-0.0277,3.58,1
39.0,2.12,2.27,0.121,3.66,1
39.0,0.733,2.67,-2.22,3.55,1
39.0,0.0672,1.87,-1.3485,3.18,1
39.0,-0.481,0.713,-0.477,0.983,1
39.0,-0.152,-0.587,0.681,0.912,1
39.1,0.633,-1.61,1.77,2.48,1
39.1,-0.0356,-2.34,2.31,3.29,1
39.1,-1.63,-1.3,1.44,2.53,1
39.1,-1.7,1.01,1.35,2.39,1
39.1,-1.11,1.55,1.93,2.71,1
39.1,-0.939,1.47,1.32,2.19,1
39.2,-1.21,1.16,1.49,2.24,1
39.2,-1.31,0.0552,1.55,2.03,1
39.2,-0.728,-0.814,0.681,1.29,1
39.2,-0.265,-0.989,0.433,1.11,1
39.2,-0.0432,-0.542,0.902,1.05,1
39.3,-0.194,-0.0464,0.687,0.715,1
39.3,-0.298,0.0113,0.394,0.494,1
39.3,-0.462,-0.0239,0.247,0.525,1
39.3,-0.812,-0.0294,0.148,0.826,1
39.3,-1.33,-0.26,0.242,1.38,1
39.3,-1.34,-0.329,0.491,1.47,1
39.4,-0.86,-0.0159,0.335,0.923,1
39.4,-0.453,0.434,0.488,0.795,1
39.4,-0.0824,0.598,0.567,0.828,1
39.4,0.22,0.729,0.586,0.961,1
39.4,0.323,0.529,0.372,0.723,1
39.5,0.273,0.421,0.0351,0.503,1
39.5,0.0336,0.497,-0.0607,0.501,1
39.5,-0.221,0.546,0.0137,0.589,1
39.5,-0.299,0.537,-0.466,0.771,1
39.5,-0.00675,0.58,-1.22,1.35,1
39.6,0.307,0.48,-1.3,1.42,1
39.6,-0.272,0.12,-0.987,1.03,1
39.6,-1.38,-0.698,-0.759,1.72,1
39.6,-2.28,-1.28,-0.499,2.66,1
39.6,-2.39,-1.43,-0.659,2.86,1
39.6,-1.57,-1.53,0.283,2.21,1
39.7,-0.06,-0.35,1.43,1.48,1
39.7,0.893,1.19,1.69,2.25,1
39.7,0.955,2.12,-0.319,2.35,1
39.7,0.156,2.54,-0.282,2.56,1
39.7,0.263,2.1,0.0784,2.12,1
39.8,1.33,0.954,-0.762,1.8,1
39.8,2.3,-0.833,-0.439,2.49,1
39.8,2.72,-2.62,-0.154,3.78,1
39.8,2.54,-2.4450000000000003,-1.03,4.42,1
39.8,2.55,-2.27,-1.39,3.68,1
39.8,2.31,-1.62,-1.46,3.17,1
39.9,1.27,-1.26,-1.33,2.23,1
39.9,0.448,-0.0676,-1.24,1.32,1
39.9,0.148,0.955,-0.805,1.26,1
39.9,0.236,1.34,-0.324,1.4,1
39.9,0.0962,1.13,-0.327,1.18,1
40.0,0.181,0.737,-0.592,0.962,1
40.0,0.628,0.112,-0.765,0.997,1
40.0,1.03,-0.458,-0.759,1.36,1
40.0,0.968,-0.676,-0.426,1.26,1
40.0,0.772,-0.477,0.227,0.935,1
40.0,0.643,-0.0645,0.677,0.936,1
40.1,0.517,0.359,0.705,0.945,1
40.1,0.355,0.941,1.03,1.44,1
40.1,0.14,1.47,0.465,1.54,1
40.1,-0.472,1.47,-1.23,1.97,1
40.1,-2.35,0.0618,-1.38,2.73,1
40.2,-2.13,-1.79,-0.15,2.79,1
40.2,-0.524,-1.4100000000000001,-1.09,3.01,1
40.2,0.217,-1.03,-1.93,2.2,1
40.2,2.81,2.0,-0.117,3.45,1
40.2,2.1146666666666665,1.165,2.59,3.42,1
40.3,1.4193333333333331,0.33,-1.28,3.39,1
40.3,0.724,-1.78,-0.7923333333333333,4.72,1
40.3,0.0766,-2.19,-0.30466666666666664,3.52,1
40.3,0.737,-1.63,0.183,1.8,1
40.3,0.546,-0.878,0.22,1.06,1
40.3,-0.42,-0.56,0.289,0.757,1
40.4,-1.38,-0.773,1.44,2.14,1
40.4,-2.31,0.0465,0.939,2.5,1
40.4,-1.3,1.84,-0.341,2.28,1
40.4,-0.493,1.84,1.47,2.4,1
40.4,-1.22,1.25,2.51,3.06,1
40.5,-2.18,0.693,2.15,3.14,1
40.5,-2.62,0.142,0.969,2.8,1
40.5,-1.88,0.108,0.821,2.06,1
40.5,-1.26,0.217,1.34,1.85,1
40.5,-1.12,0.461,1.21,1.72,1
40.5,-1.26,0.452,0.793,1.55,1
40.6,-1.06,0.623,-0.0588,1.23,1
40.6,-0.514,0.491,-0.178,0.733,1
40.6,-0.261,0.692,0.568,0.932,1
40.6,-0.287,0.118,0.986,1.03,1
40.6,-0.0607,-0.28,0.681,0.739,1
40.7,0.0888,-0.435,0.123,0.461,1
40.7,0.114,-0.516,-0.0432,0.53,1
40.7,0.119,-0.41,0.0388,0.428,1
40.7,0.0561,-0.155,0.00801,0.165,1
40.7,-0.0415,-0.134,0.104,0.174,1
40.7,-0.161,-0.293,0.409,0.529,1
40.8,-0.0868,-0.364,0.383,0.535,1
40.8,0.155,-0.189,-0.284,0.374,1
40.8,0.0159,-0.0453,-0.371,0.374,1
40.8,-0.614,0.126,-0.386,0.736,1
40.8,-1.03,0.172,-1.06,1.49,1
40.9,-1.18,0.673,-2.07,2.48,1
40.9,-1.91,1.12,-0.569,2.29,1
40.9,-2.61,1.54,1.41,3.35,1
40.9,-2.43,1.76,2.55,3.94,1
40.9,-1.61,2.19,2.02,3.39,1
41.0,-1.44,2.16,0.378,2.62,1
41.0,-1.3,0.917,-0.331,1.62,1
41.0,-0.0101,-0.351,1.22,1.27,1
41.0,2.38,-1.53,1.85,3.38,1
41.0,2.1325,-2.0,1.3,5.16,1
41.0,1.8849999999999998,-1.16,0.551,4.385,1
41.1,1.6375,-0.543,-1.59,3.61,1
41.1,1.39,-0.397,-1.6500000000000001,3.03,1
41.1,0.359,-0.659,-1.71,2.79,1
41.1,-0.0541,-1.57,-1.77,2.37,1
41.1,-0.288,-1.82,-0.831,2.02,1
41.2,0.257,-0.843,-0.661,1.1,1
41.2,0.469,0.308,-0.477,0.737,1
41.2,0.738,1.11,-0.155,1.34,1
41.2,0.507,1.22,-0.182,1.33,1
41.2,0.199,1.07,-0.317,1.14,1
41.2,0.185,0.577,-0.419,0.737,1
41.3,0.286,-0.049,-0.408,0.501,1
41.3,0.302,-0.717,-0.168,0.796,1
41.3,0.385,-1.07,0.0667,1.14,1
41.3,0.427,-0.967,0.285,1.09,1
41.3,0.547,-0.605,0.0657,0.818,1
41.4,0.614,-0.492,-0.34,0.857,1
41.4,0.264,-0.558,0.153,0.636,1
41.4,-0.556,-0.613,-0.144,0.84,1
41.4,-1.98,-0.857,-1.64,2.71,1
41.4,-2.83,-2.41,-1.57,4.03,1
41.4,-1.48,-1.5495,-0.239,3.36,1
41.5,0.000252,-0.689,-0.659,0.953,1
41.5,0.165939,0.13075000000000003,1.43,4.51,1
41.5,0.331626,0.9505,1.06,4.316666666666666,1
41.5,0.49731299999999995,1.7702499999999999,-1.65,4.123333333333333,1
41.5,0.663,2.59,-2.025,3.93,1
41.6,-0.626,1.15,-2.4,2.74,1
41.6,-0.809,-0.361,0.399,0.971,1
41.6,-0.255,-0.802,2.5,2.63,1
41.6,-0.159,-1.7,1.46,2.25,1
41.6,-0.851,-1.2646666666666666,0.0459,3.2,1
41.7,-1.43,-0.8293333333333333,0.252,3.17,1
41.7,-1.97,-0.394,1.58,2.56,1
41.7,-1.57,1.92,1.87,3.1,1
41.7,-1.82,1.935,0.918,3.51,1
41.7,-2.22,1.95,0.592,3.02,1
41.7,-2.57,0.0321,1.49,2.97,1
41.8,-2.41,-1.16,1.35,3.0,1
41.8,-1.11,-1.16,0.695,1.75,1
41.8,0.375,0.242,1.18,1.27,1
41.8,0.89,1.2,1.36,2.02,1
41.8,0.865,1.54,1.04,2.05,1
41.9,0.496,1.28,0.623,1.51,1
41.9,-0.143,0.468,0.792,0.931,1
41.9,-0.411,-0.245,0.731,0.874,1
41.9,-0.598,-0.73,0.273,0.982,1
41.9,-0.523,-0.865,0.0844,1.01,1
41.9,-0.105,-0.907,-0.0236,0.913,1
42.0,-0.19,-0.976,0.22,1.02,1
42.0,-0.295,-0.565,0.201,0.668,1
42.0,-0.0522,0.186,-0.141,0.239,1
42.0,0.171,0.631,-0.149,0.67,1
42.0,0.382,0.847,-0.176,0.946,1
42.1,0.657,0.966,-0.431,1.25,1
42.1,0.973,0.912,-0.999,1.67,1
42.1,0.711,0.526,-1.37,1.63,1
42.1,-0.397,0.187,-0.926,1.02,1
42.1,-1.93,0.0403,-0.306,1.95,1
42.1,-1.885,0.00787,0.168,3.32,1
42.2,-1.8399999999999999,0.088,0.611,4.0,1
42.2,-1.795,0.519,0.111,3.79,1
42.2,-1.75,1.64,-0.207,2.4,1
42.2,0.354,1.38,0.414,1.49,1
42.2,1.91,1.53e-05,1.39,2.37,1
42.3,2.92,-1.92,0.977,3.63,1
42.3,2.792,-2.235,0.037,4.87,1
42.3,2.6639999999999997,-2.55,-1.21,4.793333333333333,1
42.3,2.5359999999999996,-0.352,-1.4533333333333334,4.716666666666667,1
42.3,2.408,0.576,-1.6966666666666665,4.64,1
42.4,2.28,0.0756,-1.94,3.0,1
42.4,1.24,-0.494,-0.694,1.5,1
42.4,0.553,-0.696,-0.767,1.17,1
42.4,-0.194,-0.0592,-0.129,0.24,1
42.4,-0.288,1.04,0.279,1.11,1
42.4,-0.078,1.55,-0.365,1.59,1
42.5,-0.0644,0.742,-0.865,1.14,1
42.5,0.33,0.166,-0.863,0.939,1
42.5,0.767,-0.285,-0.611,1.02,1
42.5,1.13,-0.546,-0.363,1.31,1
42.5,1.13,-0.604,-0.105,1.29,1
42.6,0.773,-0.362,0.0922,0.859,1
42.6,0.396,0.0894,0.265,0.485,1
42.6,0.133,0.473,0.533,0.725,1
42.6,0.191,0.694,0.803,1.08,1
42.6,0.311,0.801,0.339,0.923,1
42.6,-0.17,0.352,-0.28,0.481,1
42.7,-1.11,-0.802,-1.39,1.95,1
42.7,-1.53,-2.33,-1.52,3.17,1
42.7,-0.723,-2.31,-1.88,3.54,1
42.7,0.487,-2.29,-1.016,3.81,1
42.7,2.36,-1.1,-0.152,2.6,1
42.8,2.0149999999999997,-0.499,-0.26,2.4050000000000002,1
42.8,1.67,1.4,-0.368,2.21,1
42.8,1.04,1.8,-1.0939999999999999,3.25,1
42.8,0.198,2.2,-1.82,4.29,1
42.8,-0.852,2.6,1.42,3.09,1
42.8,-1.04,0.151,1.89,2.17,1
42.9,-0.741,-1.36,0.74,1.71,1
42.9,-0.459,-1.84,1.34,2.32,1
42.9,-0.776,-1.33,1.79,2.36,1
42.9,-1.62,0.139,0.642,1.75,1
42.9,-1.2,1.42,0.476,1.92,1
43.0,-0.767,2.06,0.789,2.34,1
43.0,-1.08,1.95,1.02,2.45,1
43.0,-1.3,0.403,1.29,1.88,1
43.0,-1.17,-1.01,1.23,1.98,1
43.0,-1.05,-1.56,1.11,2.18,1
43.1,-0.0931,0.123,1.34,1.35,1
43.1,0.321,0.863,1.15,1.47,1
43.1,0.102,0.617,0.632,0.889,1
43.1,-0.362,0.129,0.314,0.496,1
43.1,-0.88,-0.222,0.361,0.977,1
43.1,-1.02,-0.291,0.514,1.18,1
43.2,-0.829,-0.083,0.445,0.945,1
43.2,-0.402,-0.00891,0.381,0.554,1
43.2,0.0158,-0.129,0.42,0.44,1
43.2,0.118,-0.249,0.414,0.497,1
43.2,0.174,-0.189,0.361,0.443,1
43.3,0.333,-0.106,0.00118,0.35,1
43.3,0.353,0.0915,-0.161,0.399,1
43.3,0.097,0.316,0.0924,0.343,1
43.3,-0.321,0.408,-0.0913,0.527,1
43.3,-0.778,0.712,-0.259,1.09,1
43.3,-1.08,0.987,-0.602,1.58,1
43.4,-1.04,0.928,-1.18,1.83,1
43.4,-1.55,0.961,-0.225,1.84,1
43.4,-2.35,0.932,0.287,2.55,1
43.4,-2.94,0.758,0.0157,3.04,1
43.4,-2.78,0.885,-0.126,2.92,1
43.5,-1.87,0.862,-0.177,2.07,1
43.5,-0.683,0.0767,1.21,1.4,1
43.5,0.473,-0.901,2.11,2.34,1
43.5,1.68,-1.2,0.929,2.27,1
43.5,1.758,-0.264,-0.151,3.34,1
43.5,1.8359999999999999,0.616,-0.962,4.5,1
43.6,1.914,0.496,-1.66,5.04,1
43.6,1.992,-0.625,-0.624,3.96,1
43.6,2.07,-1.2033333333333331,-1.4,3.78,1
43.6,1.86,-1.7816666666666665,-2.1,4.5,1
43.6,2.17,-2.36,-1.79,3.67,1
43.7,1.83,-1.25,-1.33,2.58,1
43.7,0.909,-0.566,-1.16,1.58,1
43.7,0.477,0.567,-0.804,1.09,1
43.7,0.114,1.34,-0.371,1.4,1
43.7,-0.281,1.7,0.296,1.75,1
43.8,-0.469,1.55,0.694,1.76,1
43.8,-0.0677,0.95,0.289,0.995,1
43.8,0.619,0.156,-0.425,0.766,1
43.8,1.01,-0.28,-0.131,1.06,1
43.8,1.06,-0.884,0.983,1.7,1
43.8,0.608,-1.77,0.463,1.93,1
43.9,0.66,-1.34,-0.922,1.76,1
43.9,0.909,0.233,-0.793,1.23,1
43.9,0.399,1.11,-0.599,1.32,1
43.9,-1.35,0.958,-1.11,2.0,1
43.9,-2.55,-0.405,-0.187,2.59,1
44.0,-1.07,-1.9,-0.336,2.2,1
44.0,0.825,-2.46,-1.98,3.26,1
44.0,1.09,-0.037,-1.32,1.71,1
44.0,2.51,2.42,0.689,3.55,1
44.0,1.97,1.67,0.757,2.69,1
44.0,0.991,0.691,-0.795,1.45,1
44.1,1.08,0.514,-1.57,1.97,1
44.1,1.18,1.09,-0.876,1.83,1
44.1,0.114,1.31,-0.172,1.32,1
44.1,-0.984,0.654,0.638,1.34,1
44.1,-1.77,-0.448,1.42,2.31,1
44.2,-2.05,-1.16,1.92,3.04,1
44.2,-2.11,-0.819,1.73,2.85,1
44.2,-2.32,0.176,0.775,2.45,1
44.2,-1.51,0.987,-0.189,1.82,1
44.2,-0.398,1.05,0.166,1.13,1
44.2,-0.367,0.439,0.93,1.09,1
44.3,-0.56,-0.413,0.676,0.971,1
44.3,-0.6,-0.709,0.332,0.987,1
44.3,-0.726,-0.24,0.927,1.2,1
44.3,-0.941,0.2,1.16,1.51,1
44.3,-1.21,0.43,0.983,1.62,1
44.4,-1.19,0.711,0.814,1.61,1
44.4,-1.04,0.802,0.554,1.42,1
44.4,-0.729,0.578,0.439,1.03,1
44.4,-0.489,0.154,0.558,0.758,1
44.4,-0.556,-0.336,0.622,0.899,1
44.5,-0.425,-0.46,0.501,0.802,1
44.5,-0.0198,-0.15,0.35,0.381,1
44.5,0.0687,0.0193,0.562,0.567,1
44.5,-0.0238,0.199,0.831,0.854,1
44.5,-0.0429,0.329,0.377,0.502,1
44.5,-0.161,0.412,0.0288,0.443,1
44.6,-0.281,0.38,0.29,0.554,1
44.6,-0.127,0.49,0.135,0.523,1
44.6,0.0738,0.602,-0.584,0.842,1
44.6,-0.138,0.422,-1.27,1.34,1
44.6,-0.538,0.0598,-1.55,1.64,1
44.7,-0.944,-0.283,-1.26,1.6,1
44.7,-1.27,-0.584,-0.616,1.53,1
44.7,-1.57,-0.89,0.121,1.81,1
44.7,-1.87,-1.22,0.275,2.25,1
44.7,-1.69,-1.36,0.238,2.19,1
44.7,-1.23,-1.02,0.177,1.61,1
44.8,-0.13,0.571,0.18,0.612,1
44.8,1.21,2.3,-0.015,2.6,1
44.8,1.78,2.535,0.239,3.57,1
44.8,2.15,2.77,1.03,3.65,1
44.8,2.26,1.45,0.474,2.72,1
44.9,2.14,0.187,0.387,2.18,1
44.9,1.79,-1.79,-1.58,2.98,1
44.9,1.65,-1.6,-1.47,2.73,1
45.0,1.1,-1.0,-1.15,1.88,1
45.0,0.343,0.0741,-0.853,0.922,1
45.0,0.0866,1.16,-0.417,1.24,1
45.0,-0.0361,1.54,-0.0282,1.54,1
45.0,0.0899,1.34,0.0995,1.35,1
45.1,0.65,0.855,-0.061,1.08,1
45.1,1.26,0.306,-0.18,1.31,1
45.1,1.61,-0.126,-0.157,1.62,1
45.1,1.42,-0.494,-0.343,1.54,1
45.1,1.09,-0.665,-0.426,1.35,1
45.2,0.817,-0.576,-0.476,1.11,1
45.2,-0.0103,-0.616,-0.386,0.727,1
45.2,-1.07,-0.906,-0.48,1.49,1
45.2,-1.57,-1.11,-0.982,2.16,1
45.2,-1.38,-1.22,-0.901,2.06,1
45.2,-0.545,-0.674,-0.302,0.917,1
45.3,0.861,0.341,-0.0778,0.93,1
45.3,0.454,0.226,-2.05,2.11,1
45.4,-0.217,-0.236,-0.765,0.83,1
45.4,-0.336,-0.527,0.877,1.08,1
45.4,0.028,-0.995,0.0818,0.999,1
45.4,-0.134,-1.69,-1.09,2.02,1
45.4,-0.729,-1.76,-0.734,2.04,1
45.4,-0.285,0.0678,0.455,0.541,1
45.5,-0.529,0.854,1.82,2.08,1
45.5,-1.21,1.14,2.13,2.7,1
45.5,-1.84,1.53,1.91,3.06,1
45.5,-2.12,1.88,1.59,3.25,1
45.5,-1.8,1.45,1.39,2.7,1
45.6,-1.72,0.625,1.61,2.44,1
45.6,-1.33,-0.281,0.936,1.65,1
45.6,-0.781,-0.754,0.535,1.21,1
45.6,-0.44,-0.933,0.601,1.19,1
45.6,-0.0887,-0.0293,0.817,0.823,1
45.6,0.0579,0.553,0.71,0.902,1
45.7,-0.159,0.747,0.527,0.928,1
45.7,-0.595,0.603,0.579,1.03,1
45.7,-0.756,0.249,0.523,0.953,1
45.7,-0.401,0.0933,0.386,0.564,1
45.7,0.0148,0.00444,0.415,0.415,1
45.8,0.0177,-0.165,0.572,0.595,1
45.8,-0.333,-0.295,0.638,0.778,1
45.8,-0.574,-0.304,0.554,0.854,1
45.8,-0.58,-0.135,0.441,0.742,1
45.8,-0.305,-0.0256,0.0935,0.32,1
45.9,0.0556,-0.344,-0.433,0.556,1
45.9,0.362,-0.57,-0.316,0.746,1
45.9,0.548,-0.582,0.0236,0.8,1
45.9,0.289,-0.267,0.365,0.536,1
45.9,-0.417,0.327,0.305,0.611,1
45.9,-0.977,0.788,0.0284,1.26,1
46.0,-1.16,0.88,-0.0349,1.46,1
46.0,-1.11,1.08,-0.0628,1.55,1
46.0,-0.779,1.58,-0.575,1.86,1
46.0,-0.206,2.02,-1.06,2.29,1
46.0,-0.0105,1.85,-1.01,2.11,1
46.1,-0.839,0.783,0.0722,1.15,1
46.1,-1.97,-0.298,0.701,2.12,1
46.1,-2.32,-0.47,0.428,2.4,1
46.1,-1.01,-0.257,0.564,1.18,1
46.1,0.575,-0.363,1.16,1.34,1
46.1,1.57,-0.0355,0.715,1.72,1
46.2,1.54,0.301,-0.1,1.57,1
46.2,2.4,0.473,-1.33,2.78,1
46.2,2.4975,-0.197,-2.39,4.28,1
46.2,2.5949999999999998,-1.86,-1.62,4.89,1
46.2,2.6925,-1.5833333333333335,0.623,4.86,1
46.3,2.79,-1.3066666666666666,-0.599,3.89,1
46.3,2.9,-1.03,-2.04,3.69,1
46.3,2.06,-1.46,-1.55,2.96,1
46.3,0.924,-1.02,-1.37,1.95,1
46.3,0.36,0.329,-0.507,0.703,1
46.3,0.107,1.41,0.342,1.46,1
46.4,-0.0392,1.95,0.553,2.02,1
46.4,-0.422,1.59,0.153,1.65,1
46.4,-0.392,0.733,-0.391,0.918,1
46.4,0.0387,0.128,-0.528,0.544,1
46.4,0.632,-0.0526,-0.228,0.674,1
46.5,0.805,-0.229,-0.227,0.867,1
46.5,1.14,-0.295,-0.443,1.26,1
46.5,1.41,-0.396,-0.657,1.6,1
46.5,0.733,-0.598,-0.555,1.1,1
46.5,-1.16,-1.16,-0.0139,1.64,1
46.6,-2.76,-2.35,-0.452,3.66,1
46.6,-2.54,-1.7473333333333334,-1.42,5.01,1
46.6,-2.32,-1.1446666666666667,-1.44,3.87,1
46.6,0.227,-0.542,-0.253,0.64,1
46.6,0.80275,1.66,2.48,4.31,1
46.6,1.3785,1.8399999999999999,0.9689999999999999,4.1499999999999995,1
46.7,1.95425,2.02,-0.542,3.9899999999999998,1
46.7,2.53,2.2,-1.4460000000000002,3.83,1
46.7,1.5,2.38,-2.35,3.67,1
46.7,0.58,0.402,-0.671,0.974,1
46.7,-0.0285,-0.668,1.08,1.27,1
46.8,-0.467,-1.47,0.641,1.67,1
46.8,-0.905,-1.69,-0.00352,1.91,1
46.8,-1.9,-2.32,0.526,3.04,1
46.8,-2.74,-2.2,1.29,3.74,1
46.8,-2.04,-0.0946,1.19,3.24,1
46.8,-1.34,1.99,1.37,2.77,1
46.9,-0.977,2.31,1.25,2.8,1
46.9,-1.63,1.18,1.03,2.26,1
46.9,-1.92,-0.137,1.03,2.19,1
46.9,-1.55,-1.11,0.626,2.01,1
46.9,-0.838,-1.53,0.864,1.94,1
47.0,0.0747,-1.07,0.87,1.38,1
47.0,0.299,-0.634,0.595,0.919,1
47.0,0.0435,-0.316,0.641,0.716,1
47.0,-0.349,0.169,0.59,0.706,1
47.0,-0.98,0.518,0.511,1.22,1
47.0,-1.24,0.874,0.364,1.56,1
47.1,-1.01,0.966,0.711,1.57,1
47.1,-0.611,0.901,0.944,1.44,1
47.1,-0.262,0.688,0.717,1.03,1
47.1,0.0158,0.469,0.494,0.682,1
47.1,0.229,0.317,0.64,0.75,1
47.2,0.337,0.291,0.657,0.793,1
47.2,0.542,0.397,0.0651,0.675,1
47.2,0.596,0.578,-0.185,0.85,1
47.2,0.448,0.675,0.0832,0.815,1
47.2,0.4,0.762,0.00546,0.861,1
47.2,0.385,0.799,-0.48,1.01,1
47.3,0.19,0.869,-0.763,1.17,1
47.3,-0.403,0.625,-0.57,0.937,1
47.3,-1.39,0.0848,0.0415,1.4,1
47.3,-2.07,-0.668,1.03,2.41,1
47.3,-1.37,-1.96,0.719,2.49,1
47.4,-0.767,-2.44,-0.886,2.71,1
47.4,0.283,-1.0,-1.25,1.63,1
47.4,1.38,1.48,-0.513,2.09,1
47.4,1.89,2.0549999999999997,-0.206,3.58,1
47.4,2.31,2.63,-0.292,3.51,1
47.5,2.0700000000000003,0.938,-0.627,3.64,1
47.5,1.83,-2.25,0.639,4.09,1
47.5,1.59,-1.819,0.871,4.1899999999999995,1
47.5,1.52,-1.388,-1.64,4.29,1
47.5,1.69,-0.957,-1.4129999999999998,4.3,1
47.5,1.14,-0.894,-1.186,4.01,1
47.6,-0.134,-1.34,-0.959,3.19,1
47.6,-0.044,-0.423,-0.732,0.846,1
47.6,0.462,0.915,1.45,1.78,1
47.6,0.381,2.23,2.35,3.26,1
47.6,-0.739,2.47,1.94,3.23,1
47.7,-1.01,1.99,0.505,2.29,1
47.7,-1.0,1.16,-0.858,1.76,1
47.7,-0.934,0.000626,-2.01,2.22,1
47.7,-0.707,-0.74,-1.31,1.67,1
47.7,0.075,-1.27,-0.382,1.33,1
47.7,0.884,-1.57,0.186,1.81,1
47.8,1.15,-1.47,-0.145,1.87,1
47.8,-0.0243,-1.53,-0.462,1.6,1
47.8,-1.65,-2.12,-0.014,2.68,1
47.8,-2.44,-2.34,-0.712,3.46,1
47.8,-2.26,-1.31,-1.59,3.05,1
47.9,-0.703,0.581,-0.135,0.922,1
47.9,1.71,2.6,0.35,3.14,1
47.9,2.45,2.475,-1.49,4.32,1
47.9,2.03,2.35,-2.02,3.7,1
47.9,1.68,0.814,-1.24,2.24,1
47.9,1.57,-0.744,-0.557,1.82,1
48.0,1.42,-1.11,-0.634,1.91,1
48.0,0.641,-1.18,-1.13,1.76,1
48.0,-0.722,-1.11,-0.914,1.61,1
48.0,-1.24,-0.162,0.0944,1.25,1
48.0,-0.779,0.655,1.22,1.59,1
48.1,-0.336,0.981,1.95,2.2,1
48.1,-0.577,0.886,2.03,2.29,1
48.1,-1.25,1.32,1.36,2.28,1
48.1,-2.2,1.23,1.36,2.86,1
48.1,-2.14,0.623,0.891,2.4,1
48.2,-1.13,-0.311,0.655,1.34,1
48.2,-0.088,-0.834,0.684,1.08,1
48.2,0.508,-0.756,0.859,1.25,1
48.2,0.649,0.00837,0.595,0.881,1
48.2,0.247,0.486,0.909,1.06,1
48.2,-0.321,0.76,1.2,1.46,1
48.3,-0.794,0.761,0.923,1.44,1
48.3,-1.08,0.553,0.626,1.36,1
48.3,-1.15,0.0852,0.722,1.36,1
48.3,-1.19,-0.393,0.738,1.45,1
48.3,-1.02,-0.428,0.386,1.17,1
48.4,-0.493,-0.114,0.149,0.527,1
48.4,-0.0422,-0.104,0.204,0.233,1
48.4,0.195,-0.214,-0.28,0.402,1
48.4,0.314,-0.0998,-0.519,0.615,1
48.4,0.243,0.115,-0.0416,0.272,1
48.4,-0.279,0.0363,0.213,0.352,1
48.5,-1.28,0.179,-0.26,1.32,1
48.5,-2.17,0.635,-1.03,2.48,1
48.5,-2.66,0.764,-1.55,3.17,1
48.5,-1.9853333333333336,0.584,0.301,3.62,1
48.5,-1.3106666666666669,0.724,0.796,3.46,1
48.6,-0.636,1.48,-0.0789,1.61,1
48.6,1.24,0.817,0.00442,1.49,1
48.6,1.11,-0.438,1.01,1.56,1
48.6,0.0751,-0.745,0.875,1.15,1
48.6,-0.324,0.353,0.608,0.774,1
48.6,0.93,1.47,0.0735,1.74,1
48.7,2.38,1.72,-0.303,2.95,1
48.7,2.1799999999999997,1.28,-0.464,3.74,1
48.7,1.98,0.205,-1.03,3.64,1
48.7,1.78,-2.21,-1.05,3.03,1
48.7,0.862,-2.1933333333333334,-2.49,4.57,1
48.8,1.24,-2.1766666666666667,-2.54,4.26,1
48.8,1.7,-2.16,-1.83,3.31,1
48.8,1.58,-1.52,-1.2,2.5,1
48.8,1.17,-0.735,-0.513,1.47,1
48.8,0.642,0.213,0.0547,0.679,1
48.9,0.141,1.14,0.0996,1.16,1
48.9,-0.0297,1.7,-0.138,1.7,1
48.9,0.219,1.57,-0.266,1.61,1
48.9,0.612,1.19,-0.202,1.36,1
48.9,1.04,0.603,-0.15,1.21,1
48.9,1.13,0.289,0.028,1.17,1
49.0,1.56,0.264,0.148,1.58,1
49.0,2.01,-0.116,-0.205,2.02,1
49.0,0.948,-1.14,-1.2,1.91,1
49.0,-0.935,-1.48,-2.33,4.25,1
49.0,-1.58,-1.8199999999999998,-1.85,3.9133333333333336,1
49.1,-1.22,-2.16,-1.87,3.5766666666666667,1
49.1,-0.84,-2.5,-1.89,3.24,1
49.1,0.373,-1.78775,0.387,2.91,1
49.1,0.7553333333333334,-1.0755,2.02,3.86,1
49.1,1.1376666666666666,-0.36324999999999985,0.329,4.81,1
49.1,1.52,0.349,-0.586,1.66,1
49.2,0.182,0.145,-0.103,0.255,1
49.2,-1.1,1.66,0.107,2.0,1
49.2,-1.2,1.94,0.193,2.29,1
49.2,0.421,1.26,1.73,2.19,1
49.2,0.646,0.683,1.915,3.48,1
49.3,-0.38,0.0263,2.1,2.14,1
49.3,-1.26,0.0187,0.637,1.41,1
49.3,-2.07,0.497,1.3,2.5,1
49.3,-2.38,0.539,1.37,2.8,1
49.3,-2.48,-0.225,0.578,2.56,1
49.3,-1.86,-1.06,0.0123,2.15,1
49.4,-1.47,-1.64,0.0895,2.2,1
49.4,-1.16,-0.353,0.576,1.34,1
49.4,-0.626,1.1,1.44,1.92,1
49.4,-0.961,1.28,1.41,2.13,1
49.4,-1.27,0.943,0.713,1.74,1
49.5,-1.34,0.397,0.519,1.49,1
49.5,-1.24,-0.0259,0.96,1.57,1
49.5,-1.09,-0.249,0.987,1.49,1
49.5,-0.971,-0.29,0.616,1.19,1
49.5,-0.693,-0.101,0.372,0.793,1
49.6,-0.757,0.128,0.66,1.01,1
49.6,-0.946,0.315,0.757,1.25,1
49.6,-0.842,0.438,0.385,1.02,1
49.6,-0.459,0.681,-0.202,0.846,1
49.6,-0.133,0.905,-0.254,0.949,1
49.6,-0.108,0.902,0.037,0.909,1
49.7,-0.557,0.585,-0.116,0.816,1
49.7,-1.15,0.0588,-0.203,1.17,1
49.7,-1.59,-0.217,-0.419,1.66,1
49.7,-1.79,-0.222,-0.819,1.98,1
49.7,-1.42,0.0268,-1.26,1.9,1
49.8,-0.884,0.342,-0.668,1.16,1
49.8,-0.314,0.732,0.174,0.815,1
49.8,0.0634,0.898,0.541,1.05,1
49.8,0.0845,0.269,0.626,0.687,1
49.8,-0.612,-0.717,-0.184,0.96,1
49.8,-1.15,-1.06,-0.952,1.83,1
49.9,-1.08,-0.853,-1.1,1.76,1
49.9,-0.0899,-0.0875,-0.289,0.315,1
49.9,2.07,0.545,-1.03,2.37,1
49.9,2.008,0.319,-0.941,4.58,1
49.9,1.946,-1.35,0.259,4.57,1
50.0,1.884,-2.59,0.915,4.56,1
50.0,1.822,-1.778,-0.894,4.55,1
50.0,1.76,-0.966,-2.26,3.02,1
50.0,1.2,-0.737,-2.54,2.9,1
50.0,0.754,-0.68,-2.31,2.76,1
50.0,0.323,-0.0167,-2.08,2.11,1
50.1,0.574,1.26,-0.492,1.47,1
50.1,0.424,1.86,0.846,2.09,1
50.1,0.377,1.16,1.45,1.89,1
50.1,0.786,0.699,1.02,1.47,1
50.1,1.25,0.378,0.108,1.31,1
50.2,2.02,0.42,-0.197,2.07,1
50.2,2.03,0.162,-0.669,2.15,1
50.2,1.13,-0.157,-1.33,1.75,1
50.2,0.815,-0.384,-1.56,1.8,1
50.2,1.1,-0.623,-0.82,1.51,1
50.3,1.49,-0.589,0.103,1.61,1
50.3,1.3,-0.845,0.931,1.81,1
50.3,0.758,-1.14,0.947,1.67,1
50.3,-0.448,-0.914,-0.523,1.14,1
50.3,-1.95,-0.725,-1.8,2.75,1
50.3,-2.81,-1.33,-1.655,4.59,1
50.4,-2.87,-0.791,-1.51,3.34,1
50.4,-2.4,1.12,1.1,2.86,1
50.4,0.0616,1.18,0.654,1.35,1
50.4,0.7844,0.408,0.13,4.84,1
50.4,1.5072,0.12,1.01,4.04,1
50.5,2.23,1.34,-1.92,3.24,1
50.5,0.203,1.54,-1.371,4.08,1
50.5,-0.765,0.823,-0.822,1.39,1
50.5,-0.701,-0.354,1.12,1.36,1
50.5,-0.697,-1.21,1.89,2.35,1
50.5,-0.647,-0.875,2.14,2.4,1
50.6,-1.58,0.546,2.5,3.01,1
50.6,-2.18,1.93,2.62,3.92,1
50.6,-2.2,2.29,1.53,3.53,1
50.6,-2.03,1.6,0.599,2.65,1
50.6,-1.37,0.19,0.863,1.63,1
50.7,-0.64,-0.793,1.26,1.62,1
50.7,0.014,-1.61,0.159,1.62,1
50.7,0.0847,-1.41,-0.187,1.42,1
50.7,0.359,0.431,0.855,1.02,1
50.7,0.505,1.28,1.27,1.87,1
50.7,0.13,1.23,1.19,1.72,1
50.8,-0.501,0.652,0.677,1.07,1
50.8,-1.26,-0.228,0.502,1.38,1
50.8,-1.77,-0.79,0.65,2.04,1
50.8,-1.57,-0.713,0.633,1.84,1
50.8,-1.04,-0.269,0.386,1.14,1
50.9,-0.638,-0.0596,0.0814,0.646,1
50.9,-0.0154,0.457,-0.127,0.475,1
50.9,0.444,0.907,0.141,1.02,1
50.9,0.632,1.08,-0.174,1.26,1
50.9,0.454,0.805,-0.754,1.19,1
51.0,0.00397,0.338,-0.668,0.748,1
51.0,-1.0,0.108,0.0128,1.01,1
51.0,-1.66,0.053,-0.072,1.67,1
51.0,-1.86,0.283,-0.916,2.09,1
51.0,-2.16,0.367,-0.874,2.36,1
51.0,-2.0233333333333334,0.0851,-0.308,3.03,1
51.1,-1.8866666666666667,-0.107,-0.158,3.1,1
51.1,-1.75,0.144,-0.573,1.85,1
51.1,0.977,0.369,-0.0946,1.05,1
51.1,1.5146666666666666,-0.0134,1.88,3.79,1
51.1,2.0523333333333333,-0.756,2.53,4.57,1
51.2,2.59,-0.866,0.989,2.9,1
51.2,1.92,0.06,-0.782,2.07,1
51.2,1.64,0.245,-1.5010000000000001,3.18,1
51.2,1.52,-0.312,-2.22,2.7,1
51.2,1.65,-0.766,-1.14,2.14,1
51.2,1.23,-0.688,-0.0716,1.41,1
51.3,1.07,-0.702,-1.37,1.88,1
51.3,1.15,-0.0996,-0.672,1.34,1
51.3,1.63,0.0458,0.0592,1.63,1
51.3,1.66,-0.453,0.0678,1.72,1
51.3,1.1,-0.35,-0.219,1.18,1
51.4,0.65,0.226,-0.442,0.817,1
51.4,0.363,0.857,-0.305,0.98,1
51.4,-0.0125,1.22,0.0649,1.22,1
51.4,-0.103,1.01,0.22,1.04,1
51.4,0.237,0.397,0.0347,0.464,1
51.4,0.656,0.00357,-0.181,0.68,1
51.5,0.936,-0.181,-0.619,1.14,1
51.5,1.16,-0.253,-1.12,1.63,1
51.5,0.996,-0.443,-0.971,1.46,1
51.5,0.548,-0.703,-0.365,0.963,1
51.5,-0.293,-1.12,-0.149,1.17,1
51.6,-1.05,-1.88,-0.27,2.17,1
51.6,-1.35,-2.53,-1.06,3.06,1
51.6,-1.12,-2.43,-2.14,3.43,1
51.6,-0.327,-1.03,-0.916,1.42,1
51.6,1.92,0.836,2.22,3.05,1
51.7,2.46,2.47,2.01,4.78,1
51.7,3.0,2.3433333333333333,-1.34,5.06,1
51.7,1.46,2.216666666666667,-1.1686666666666667,5.06,1
51.7,0.502,2.09,-0.9973333333333334,3.71,1
51.7,0.716,0.678,-0.826,1.29,1
51.7,1.24,-0.342,1.8,2.21,1
51.8,1.24,-1.52,1.71,2.6,1
51.8,0.0851,-2.36,1.04,2.58,1
51.8,-1.9,-1.87,0.817,2.79,1
51.8,-2.82,0.476,0.78,2.97,1
51.8,-1.91,1.84,1.45,3.02,1
51.9,-1.84,1.77,1.42,2.92,1
51.9,-1.83,1.35,1.26,2.6,1
51.9,-1.63,0.613,1.44,2.26,1
51.9,-1.74,-0.571,1.42,2.32,1
51.9,-1.79,-1.4,0.695,2.38,1
51.9,-1.42,-1.46,0.238,2.05,1
52.0,-0.579,-0.364,0.458,0.823,1
52.0,-0.492,0.287,0.564,0.802,1
52.0,-0.712,0.369,0.515,0.953,1
52.0,-0.855,0.196,0.483,1.0,1
52.0,-1.03,-0.247,0.414,1.14,1
52.1,-1.2,-0.581,0.397,1.39,1
52.1,-0.742,-0.318,0.483,0.941,1
52.1,-0.199,0.169,0.628,0.68,1
52.1,-0.112,0.331,0.729,0.809,1
52.1,-0.155,0.325,0.847,0.921,1
52.1,-0.0531,0.386,0.736,0.833,1
52.2,0.0159,0.376,0.63,0.733,1
52.2,0.0838,0.553,0.378,0.675,1
52.2,0.266,0.572,0.221,0.668,1
52.2,0.147,0.526,0.237,0.596,1
52.2,-0.0821,0.475,0.0313,0.483,1
52.3,-0.136,0.522,-0.19,0.572,1
52.3,-0.0206,0.673,-0.603,0.904,1
52.3,-0.0974,0.589,-1.19,1.33,1
52.3,-1.11,0.135,-1.53,1.89,1
52.3,-2.9,-0.375,-0.87,3.05,1
52.4,-2.69,-0.748,-0.934,3.68,1
52.4,-2.48,-0.402,-1.69,3.02,1
52.4,-1.27,0.0617,-1.28,1.8,1
52.4,-0.575,-0.127,0.244,0.638,1
52.4,-0.055,-1.27,1.18,1.73,1
52.4,0.203,-2.36,1.14,2.63,1
52.5,0.422,-1.48,0.338,1.58,1
52.5,1.25,1.55,0.256,2.01,1
52.5,1.42,1.79,0.47,3.91,1
52.5,1.87,2.0300000000000002,-1.11,4.47,1
52.5,2.38,2.27,-1.45,3.59,1
52.6,2.473333333333333,-0.268,0.0554,3.28,1
52.6,2.566666666666667,-0.772,1.58,4.96,1
52.6,2.66,-1.276,-0.00765,4.359999999999999,1
52.6,2.48,-1.78,-2.19,3.76,1
52.6,2.46,-0.573,-2.2800000000000002,3.83,1
52.6,1.47,-1.19,-2.37,3.04,1
52.7,0.91,-0.328,-1.45,1.75,1
52.7,0.574,0.817,0.123,1.01,1
52.7,0.314,1.66,1.29,2.13,1
52.7,-0.0597,1.93,1.65,2.54,1
52.7,-0.442,1.57,0.866,1.84,1
52.8,-0.164,0.654,-0.663,0.945,1
52.8,0.454,0.133,-1.29,1.38,1
52.8,0.601,-0.148,-0.889,1.08,1
52.8,0.743,-0.313,-0.342,0.876,1
52.8,1.21,-0.155,-0.172,1.23,1
52.8,1.52,0.162,-0.0255,1.53,1
52.9,1.37,0.394,-0.262,1.45,1
52.9,0.141,-0.074,-0.657,0.676,1
52.9,-1.62,-1.4,-1.08,2.4,1
52.9,-2.62,-1.6033333333333333,-1.68,4.11,1
52.9,-2.12,-1.8066666666666664,-1.9049999999999998,4.38,1
53.0,-1.03,-2.01,-2.13,3.1,1
53.0,1.17,-0.704,1.24,1.85,1
53.0,2.6,1.23,1.42,3.21,1
53.0,2.99,1.5866666666666667,-1.45,4.84,1
53.0,2.72,1.9433333333333334,-1.755,4.195,1
53.1,1.75,2.3,-2.06,3.55,1
53.1,0.908,-0.266,-0.0814,0.949,1
53.1,0.0423,-1.9,0.4490666666666666,3.38,1
53.1,-0.195,-2.01,0.9795333333333333,3.44,1
53.1,-0.953,-1.51,1.51,2.34,1
53.1,-2.27,0.193,1.77,2.88,1
53.2,-2.2983333333333333,1.81,2.36,4.45,1
53.2,-2.3266666666666667,2.32,0.982,4.52,1
53.2,-2.355,1.49,0.0918,3.77,1
53.2,-2.3833333333333333,-0.109,0.228,3.37,1
53.2,-2.4116666666666666,-1.64,0.307,3.75,1
53.3,-2.44,-2.42,0.146,3.44,1
53.3,-0.492,-1.43,-0.217,1.52,1
53.3,1.68,1.14,0.67,2.13,1
53.3,2.4,1.94,1.37,3.38,1
53.3,1.95,1.4,1.4,2.78,1
53.3,1.41,0.433,0.758,1.66,1
53.4,0.751,-0.447,0.431,0.974,1
53.4,0.392,-0.649,0.557,0.941,1
53.4,0.202,-0.105,0.956,0.982,1
53.4,-0.361,0.323,1.09,1.19,1
53.4,-0.85,0.171,0.784,1.17,1
53.5,-0.741,-0.143,0.684,1.02,1
53.5,-0.242,-0.232,0.57,0.661,1
53.5,0.49,-0.0293,0.281,0.566,1
53.5,1.07,0.222,-0.52,1.21,1
53.5,1.31,0.581,-0.776,1.63,1
53.5,1.2,0.81,-0.476,1.52,1
53.6,0.508,0.565,-0.314,0.822,1
53.6,-0.394,0.304,-0.606,0.785,1
53.6,-1.54,0.0682,-0.504,1.62,1
53.6,-1.578,0.04,0.168,3.15,1
53.6,-1.616,0.409,0.478,4.62,1
53.7,-1.654,0.904,-0.0291,4.655,1
53.7,-1.692,1.81,-1.02,4.69,1
53.7,-1.73,2.68,-1.01,3.35,1
53.7,0.977,1.75,0.531,2.07,1
53.7,2.47,-0.545,2.43,3.51,1
53.8,2.92,-2.51,2.075,5.14,1
53.8,2.663333333333333,-1.656,1.72,4.63,1
53.8,2.4066666666666667,-0.802,-1.77,3.78,1
53.8,2.15,-0.258,-1.6433333333333333,4.04,1
53.8,1.61,-0.994,-1.5166666666666666,4.16,1
53.8,1.23,-1.47,-1.39,2.37,1
53.9,1.26,-2.12,-1.13,2.71,1
53.9,1.24,-1.27,-0.581,1.87,1
53.9,1.15,-0.649,-1.4,1.93,1
53.9,1.49,-0.446,-1.4,2.09,1
53.9,1.42,0.32,-0.687,1.61,1
54.0,0.775,0.898,0.084,1.19,1
54.0,-0.0885,0.98,0.279,1.02,1
54.0,-0.57,0.851,0.168,1.04,1
54.0,-0.502,0.485,-0.397,0.803,1
54.0,-0.283,0.0517,-0.934,0.977,1
54.0,-0.0983,-0.326,-0.877,0.94,1
54.1,0.0844,-0.75,-0.935,1.2,1
54.1,0.352,-0.854,-0.803,1.22,1
54.1,0.48,-0.54,-0.219,0.755,1
54.1,0.317,0.0665,0.66,0.735,1
54.1,0.078,0.233,0.822,0.858,1
54.2,-0.291,-0.193,0.896,0.962,1
54.2,-0.52,-0.573,0.729,1.06,1
54.2,-0.522,-0.769,-1.15,1.48,1
54.2,-0.225,-1.04,-1.99,2.26,1
54.2,0.136,-1.12,-1.14,1.6,1
54.2,0.703,-0.724,-0.741,1.25,1
54.3,1.16,-0.629,-0.646,1.47,1
54.3,1.88,-1.17,2.27,3.17,1
54.3,1.23,-0.4,2.32,2.65,1
54.3,0.321,2.59,-2.26,3.45,1
54.3,1.04,2.1066666666666665,-1.835,4.09,1
54.4,1.6,1.623333333333333,-1.41,4.73,1
54.4,1.58,1.14,0.963,2.17,1
54.4,1.2,-0.384,1.4765000000000001,2.92,1
54.4,0.732,-1.42,1.99,2.55,1
54.4,-0.813,-2.58,0.649,2.78,1
54.5,-2.78,-2.25,0.312,3.59,1
54.5,-2.5599999999999996,-0.157,0.98,3.47,1
54.5,-2.34,1.5,0.945,2.93,1
54.5,-1.52,2.33,1.21,3.03,1
54.5,-1.32,2.37,1.18,2.96,1
54.5,-0.996,1.44,0.637,1.86,1
54.6,-0.803,0.0401,0.514,0.954,1
54.6,-0.592,-1.04,1.11,1.63,1
54.6,0.0833,-0.63,1.4,1.53,1
54.6,0.827,0.272,1.53,1.76,1
54.6,0.262,0.119,1.15,1.19,1
54.7,-0.552,-0.0758,-0.113,0.569,1
54.7,-0.587,-0.0937,-0.571,0.824,1
54.7,-0.41,-0.26,-0.324,0.584,1
54.7,-0.27,-0.605,-0.241,0.705,1
54.7,-0.0829,-0.804,-0.216,0.836,1
54.7,-0.038,-0.829,0.0354,0.831,1
54.8,-0.1,-0.453,0.362,0.588,1
54.8,-0.194,0.0949,0.589,0.628,1
54.8,-0.295,0.472,0.9,1.06,1
54.8,-0.392,0.618,1.11,1.33,1
54.8,-0.497,0.636,1.19,1.44,1
54.9,-0.775,0.433,1.12,1.43,1
54.9,-1.39,0.148,0.606,1.53,1
54.9,-1.88,-0.0471,0.318,1.91,1
54.9,-1.74,0.154,0.305,1.77,1
54.9,-1.48,0.826,-0.103,1.7,1
54.9,-1.5,1.23,-0.186,1.95,1
55.0,-1.35,1.07,-0.151,1.73,1
55.0,-0.941,0.772,-0.835,1.48,1
55.0,-0.828,0.404,-0.577,1.09,1
55.0,-1.53,0.238,0.0373,1.55,1
55.0,-2.04,0.256,-0.337,2.08,1
55.1,-1.82,0.511,-1.12,2.2,1
55.1,-1.46,0.851,-1.24,2.1,1
55.1,-0.957,1.12,-1.4,2.03,1
55.1,-0.383,0.741,-0.629,1.04,1
55.1,0.717,-0.79,1.25,1.64,1
55.2,2.96,-0.87,2.6,4.93,1
55.2,2.5476,-0.9500000000000001,1.91,4.859999999999999,1
55.2,2.1352,-1.03,-0.601,4.79,1
55.2,1.7227999999999999,1.1,-0.642,4.720000000000001,1
55.2,1.3104,0.614,-0.683,4.65,1
55.2,0.898,-0.867,-0.724,2.97,1
55.3,0.215,-1.53,-0.765,1.72,1
55.3,0.255,-1.56,0.804,1.77,1
55.3,1.13,-1.2,0.107,1.66,1
55.3,1.59,-0.632,-1.04,2.0,1
55.3,1.39,0.499,-1.08,1.83,1
55.4,0.818,1.14,-0.855,1.64,1
55.4,0.286,1.09,-0.426,1.21,1
55.4,-0.0205,0.701,-0.137,0.714,1
55.4,-0.0603,0.371,0.0123,0.376,1
55.4,0.182,0.269,-0.117,0.345,1
55.4,0.471,0.202,-0.094,0.521,1
55.5,0.59,0.174,0.158,0.635,1
55.5,0.863,0.289,0.0728,0.913,1
55.5,1.34,0.328,-0.101,1.38,1
55.5,1.46,0.188,-0.322,1.5,1
55.5,0.707,-0.227,-1.02,1.26,1
55.6,-0.798,-1.27,-1.57,2.17,1
55.6,-1.2,-0.7050000000000001,-0.677,3.31,1
55.6,-0.4,-0.14000000000000012,-0.961,4.27,1
55.6,-0.354,0.4249999999999998,-1.44,3.25,1
55.6,-0.117,0.99,0.261,1.03,1
55.6,2.69,1.7799999999999998,1.49,4.45,1
55.7,2.135,2.57,0.383,4.42,1
55.7,1.58,1.66,-2.32,3.26,1
55.7,-0.114,0.764,-1.835,3.16,1
55.7,0.0426,0.819,-1.35,1.58,1
55.7,0.167,0.867,1.16,1.45,1
55.8,-0.484,0.254,1.78,1.86,1
55.8,-1.29,-1.17,1.32,2.18,1
55.8,-2.33,-1.96,1.21,3.28,1
55.8,-2.3600000000000003,-1.07,0.449,3.57,1
55.8,-2.39,1.3,0.663,2.8,1
55.9,-1.24,2.11,1.24,2.74,1
55.9,-1.39,1.42,1.26,2.35,1
55.9,-0.881,0.815,0.983,1.55,1
55.9,-0.573,0.316,0.85,1.07,1
55.9,-0.675,-0.21,0.938,1.17,1
55.9,-0.774,-0.277,1.07,1.35,1
56.0,-0.454,0.418,1.52,1.64,1
56.0,-0.52,0.712,1.56,1.79,1
56.0,-0.634,0.639,0.79,1.2,1
56.0,-0.437,0.115,0.402,0.604,1
56.0,-0.403,-0.314,0.465,0.691,1
56.1,-0.428,-0.239,0.385,0.623,1
56.1,-0.435,0.00678,0.502,0.664,1
56.1,-0.327,0.0479,0.688,0.764,1
56.1,-0.195,0.146,0.681,0.723,1
56.1,-0.299,0.154,0.536,0.633,1
56.1,-0.465,0.0915,0.658,0.811,1
56.2,-0.567,0.0246,0.72,0.916,1
56.2,-0.559,0.05,0.487,0.743,1
56.2,-0.462,0.172,-0.0239,0.494,1
56.2,-0.214,0.394,-0.299,0.539,1
56.2,-0.243,0.559,0.0733,0.613,1
56.3,-0.334,0.472,0.0813,0.584,1
56.3,-0.735,0.293,-0.169,0.809,1
56.3,-1.27,0.0496,-0.789,1.49,1
56.3,-1.5,0.135,-1.2,1.93,1
56.3,-1.63,0.363,-1.37,2.16,1
56.3,-2.05,0.354,-1.21,2.4,1
56.4,-2.93,-0.228,-0.182,2.94,1
56.4,-2.82,-0.478,0.057,2.86,1
56.4,-1.4,-0.659,-0.00874,1.55,1
56.4,0.923,-0.805,0.0876,1.23,1
56.4,2.6,-1.13,0.569,2.89,1
56.5,2.87,-1.47,0.0958,3.23,1
56.5,2.87,-0.438,-0.522,2.95,1
56.5,2.49,1.15,-1.78,3.27,1
56.5,2.9,1.97,-1.73,3.91,1
56.5,2.65,1.75,-0.4,3.2,1
56.5,2.69,0.8,1.34,3.11,1
56.6,1.44,-0.861,1.66,2.36,1
56.6,1.2,-1.7,-0.878,2.26,1
56.6,1.3,-1.08,-1.79,2.46,1
56.6,0.998,-0.949,-1.5,2.04,1
56.6,0.747,-1.17,-1.69,2.19,1
56.7,0.775,-0.661,-1.71,1.99,1
56.7,0.889,0.139,-0.933,1.3,1
56.7,0.977,0.809,0.0845,1.27,1
56.7,0.792,1.07,1.03,1.68,1
56.7,0.646,0.93,1.29,1.72,1
56.8,0.736,0.817,0.65,1.28,1
56.8,1.06,0.706,-0.0013,1.27,1
56.8,1.34,0.582,-0.0348,1.46,1
56.8,1.42,0.421,-0.061,1.48,1
56.8,1.18,0.144,-0.461,1.28,1
56.8,0.199,-0.555,-0.809,1.0,1
56.9,-1.04,-1.65,-1.29,2.34,1
56.9,-1.78,-1.8166666666666667,-1.57,3.7,1
56.9,-2.9,-1.9833333333333332,-1.94,4.89,1
56.9,-3.0,-2.15,-0.974,3.81,1
56.9,-1.45,0.501,0.966,1.82,1
57.0,1.19,0.5046666666666667,1.25,3.64,1
57.0,1.3125,0.5083333333333333,-0.894,5.13,1
57.0,1.435,0.512,-1.42,4.93,1
57.0,1.5574999999999999,-1.08,-0.134,4.09,1
57.0,1.68,-0.353,-0.843,1.91,1
57.0,-0.603,0.462,-1.7,1.86,1
57.1,-1.59,0.794,-0.293,1.8,1
57.1,-1.56,0.591,1.44,2.2,1
57.1,-1.37,0.374,2.03,2.48,1
57.1,-1.54,0.325,1.82,2.41,1
57.1,-1.52,0.71,1.64,2.35,1
57.2,-1.68,1.08,1.61,2.57,1
57.2,-1.6,1.27,1.27,2.41,1
57.2,-1.39,0.556,0.861,1.73,1
57.2,-0.662,0.0834,1.06,1.25,1
57.2,-0.472,-0.397,1.12,1.28,1
57.2,-0.863,-0.879,0.665,1.4,1
57.3,-0.976,-0.776,0.558,1.37,1
57.3,-0.661,-0.00628,0.711,0.971,1
57.3,-0.844,0.337,0.714,1.16,1
57.3,-0.949,0.334,0.49,1.12,1
57.3,-0.866,0.345,0.615,1.12,1
57.4,-0.693,0.322,0.917,1.19,1
57.4,-0.545,0.0702,1.07,1.2,1
57.4,-0.726,-0.235,1.08,1.32,1
57.4,-0.871,-0.307,0.934,1.31,1
57.4,-0.874,-0.0867,0.584,1.05,1
57.5,-0.551,0.337,0.115,0.656,1
57.5,-0.156,0.775,0.127,0.801,1
57.5,-0.0487,0.835,0.273,0.88,1
57.5,-0.182,0.522,-0.0856,0.559,1
57.5,-0.274,0.307,-0.774,0.876,1
57.5,-0.157,0.213,-0.874,0.913,1
57.6,-0.0591,0.2,-0.386,0.438,1
57.6,-0.283,0.371,-0.0391,0.469,1
57.6,-0.52,0.766,-0.46,1.03,1
57.6,-0.847,0.971,-0.824,1.53,1
57.6,-1.25,0.653,-0.597,1.53,1
57.7,-1.83,-0.25,-0.281,1.87,1
57.7,-2.05,-1.36,-0.243,2.47,1
57.7,-1.4,-2.15,-0.36,2.59,1
57.7,-0.327,-2.01,-0.609,2.13,1
57.7,0.239,-1.21,-0.421,1.31,1
57.7,0.425,0.409,-0.4,0.713,1
57.8,0.91,1.87,-0.323,2.1,1
57.8,1.01,2.25,-0.87,2.62,1
57.8,2.22,1.86,0.116,2.9,1
57.8,2.436666666666667,1.37,1.67,4.41,1
57.8,2.6533333333333333,0.859,0.603,4.86,1
57.9,2.87,-0.469,-1.04,3.09,1
57.9,1.78,-1.12,-1.95,2.87,1
57.9,1.31,-2.59,-2.14,3.96,1
57.9,0.554,-2.1,-2.33,3.79,1
57.9,0.699,-1.61,-1.23,2.14,1
57.9,0.828,-0.233,0.31,0.914,1
58.0,0.516,0.48,0.66,0.966,1
58.0,-0.144,0.744,0.308,0.818,1
58.0,-0.283,1.04,-0.206,1.1,1
58.0,-0.234,0.691,-1.03,1.26,1
58.0,-0.181,-0.0568,-1.49,1.5,1
58.1,0.311,-0.605,-1.39,1.54,1
58.1,0.976,-1.08,-1.13,1.84,1
58.1,1.44,-1.42,-0.626,2.12,1
58.1,1.52,-1.27,-0.377,2.02,1
58.1,1.04,-0.618,-0.285,1.24,1
58.2,0.0827,0.208,-0.195,0.297,1
58.2,-0.582,0.924,-0.281,1.13,1
58.2,-0.876,0.725,0.231,1.16,1
58.2,-1.4,-0.244,0.226,1.44,1
58.2,-1.41,-0.838,-1.27,2.07,1
58.2,-0.745,-1.02,-1.71,2.13,1
58.3,0.825,-0.159,-0.503,0.979,1
58.3,1.74,0.579,0.831,2.01,1
58.3,2.29,0.535,0.715,2.46,1
58.3,2.69,1.07,-1.15,3.11,1
58.3,2.1,1.26,-2.04,3.18,1
58.4,1.56,0.988,-1.67,2.49,1
58.4,1.08,0.52,0.241,1.22,1
58.4,0.666,0.146,1.28,1.45,1
58.4,-0.108,-0.219,0.844,0.879,1
58.4,-1.38,-0.616,0.615,1.63,1
58.4,-2.37,-0.603,0.647,2.53,1
58.5,-2.26,0.673,1.26,2.67,1
58.5,-1.65,1.43,2.01,2.97,1
58.5,-1.73,1.42,2.12,3.08,1
58.5,-1.85,1.05,1.64,2.68,1
58.5,-1.59,0.45,1.24,2.06,1
58.6,-0.857,0.201,0.975,1.31,1
58.6,-0.364,-0.469,0.744,0.952,1
58.6,-0.408,-0.938,0.59,1.18,1
58.6,-0.0345,-0.332,0.402,0.523,1
58.6,0.27,0.189,1.06,1.11,1
58.6,-0.0479,0.154,0.918,0.932,1
58.7,-0.24,-0.0753,0.196,0.319,1
58.7,-0.378,-0.409,0.191,0.589,1
58.7,-0.805,-0.528,0.469,1.07,1
58.7,-0.515,-0.263,0.24,0.626,1
58.7,-0.0476,-0.054,0.339,0.347,1
58.8,0.275,0.0353,0.55,0.616,1
58.8,0.277,-0.0978,0.495,0.575,1
58.8,0.154,-0.245,0.476,0.557,1
58.8,-0.00022,-0.161,0.522,0.547,1
58.8,-0.156,0.187,0.278,0.369,1
58.9,-0.315,0.29,0.37,0.566,1
58.9,-0.196,0.302,0.559,0.665,1
58.9,-0.445,0.533,0.73,1.01,1
58.9,-1.01,0.536,0.957,1.49,1
58.9,-1.55,0.428,0.281,1.63,1
58.9,-1.83,0.47,-0.689,2.01,1
59.0,-1.86,0.626,-0.438,2.01,1
59.0,-1.33,0.837,-0.216,1.58,1
59.0,-0.218,1.21,-0.824,1.48,1
59.0,0.705,1.32,-1.06,1.83,1
59.0,1.05,0.862,-0.419,1.42,1
59.1,0.68,0.297,0.465,0.876,1
59.1,-0.191,-0.0752,0.605,0.639,1
59.1,-0.953,-0.224,-0.0582,0.98,1
59.1,-0.975,-0.244,-0.597,1.17,1
59.1,-0.17,-0.176,-0.468,0.528,1
59.1,0.578,-0.438,0.552,0.912,1
59.2,0.522,-0.44,0.638,0.935,1
59.2,0.141,-0.0278,-0.382,0.408,1
59.2,0.295,0.54,-0.956,1.14,1
59.2,0.776,0.753,-0.512,1.2,1
59.2,1.51,0.268,-0.737,1.71,1
59.3,2.09,-0.407,-0.614,2.22,1
59.3,2.22,-1.69,-0.231,2.8,1
59.3,1.72,-1.99,-0.487,2.68,1
59.3,1.14,-1.04,-0.91,1.79,1
59.3,0.85,-0.376,-1.14,1.47,1
59.3,0.714,-0.473,-1.46,1.69,1
59.4,0.452,-0.548,-1.77,1.9,1
59.4,0.778,-0.0158,-1.12,1.36,1
59.4,0.812,0.576,-0.0894,1.0,1
59.4,0.404,0.893,0.528,1.11,1
59.4,0.197,0.797,0.37,0.901,1
59.5,0.183,0.505,-0.162,0.561,1
59.5,0.424,0.197,-0.573,0.739,1
59.5,0.792,-0.053,-0.587,0.987,1
59.5,1.23,-0.0742,-0.462,1.32,1
59.5,1.41,0.0374,-0.283,1.44,1
59.6,1.19,-0.0664,-0.0912,1.2,1
59.6,0.479,-0.863,-0.387,1.06,1
59.6,-0.448,-2.35,-0.718,2.5,1
59.6,-0.452,-2.32,-1.51,4.01,1
59.6,-0.104,-2.29,-1.94,4.4,1
59.6,-0.813,-2.26,-1.26,2.71,1
59.7,-0.596,1.16,0.844,1.56,1
59.7,1.63,1.3475,1.097,4.96,1
59.7,1.45,1.535,1.35,4.98,1
59.7,1.27,1.7225,-1.89,5.0,1
59.7,1.09,1.91,-2.47,3.31,1
59.8,-0.292,0.872,-0.853,1.25,1
59.8,-0.308,0.195,0.259,0.448,1
59.8,-0.108,-1.23,-0.163,1.24,1
59.8,-0.0658,-1.18,0.14,2.69,1
59.8,-0.896,-1.1300000000000001,0.363,3.21,1
59.8,-2.21,-1.08,0.0762,2.46,1
59.9,-1.47,1.54,0.357,2.16,1
59.9,-0.146,2.33,1.13,2.59,1
59.9,-0.596,1.74,0.96,2.07,1
59.9,-1.1,0.572,0.733,1.44,1
59.9,-1.49,-0.37,1.08,1.87,1
60.0,-1.69,-0.851,1.67,2.52,1
60.0,-1.38,-0.718,1.28,2.01,1
60.0,-1.34,-0.56,0.632,1.58,1
60.0,-1.23,0.182,0.598,1.38,1
60.0,-1.16,0.762,0.99,1.71,1
60.0,-0.802,1.24,1.27,1.95,1
60.1,-0.709,1.06,1.05,1.65,1
60.1,-0.594,0.175,0.467,0.776,1
60.1,-0.297,-0.55,0.265,0.679,1
60.1,0.0297,-0.643,0.264,0.696,1
60.1,0.127,-0.336,0.324,0.484,1
60.2,0.0649,-0.0293,0.485,0.49,1
60.2,0.0356,0.172,0.545,0.573,1
60.2,-0.233,0.211,0.678,0.747,1
60.2,-0.395,0.25,0.812,0.937,1
60.2,-0.359,0.409,0.604,0.813,1
60.3,-0.263,0.489,0.33,0.646,1
60.3,-0.234,0.5,0.475,0.728,1
60.3,-0.313,0.447,0.436,0.698,1
60.3,-0.488,0.288,0.244,0.617,1
60.3,-0.835,0.202,0.0197,0.859,1
60.3,-1.08,0.373,-0.381,1.21,1
60.4,-0.983,0.703,-0.85,1.48,1
60.4,-0.659,1.07,-0.846,1.52,1
60.4,-0.934,1.32,-0.491,1.69,1
60.4,-1.72,0.995,-0.0276,1.99,1
60.4,-1.89,0.643,0.172,2.0,1
60.5,-1.25,0.831,0.275,1.53,1
60.5,-0.303,1.06,-0.25,1.13,1
60.5,0.441,0.159,-0.249,0.531,1
60.5,0.371,-1.94,0.577,2.06,1
60.5,0.315,-1.6533333333333333,0.448,3.26,1
60.5,0.61,-1.3666666666666667,-0.825,3.34,1
60.6,2.07,-1.08,-0.665,2.43,1
60.6,2.0825,0.671,-1.58,3.57,1
60.6,2.0949999999999998,0.491,-2.51,4.54,1
60.6,2.1075,-0.89,-1.3,3.52,1
60.6,2.12,-1.74,-0.249,2.75,1
60.7,1.46,-1.1,-0.946,2.06,1
60.7,1.5,0.313,-1.36,2.05,1
60.7,1.42,0.651,-1.01,1.86,1
60.7,0.597,-0.115,-0.909,1.09,1
60.7,0.1,0.0318,-0.741,0.749,1
60.7,-0.325,0.513,-0.154,0.627,1
60.8,-0.644,0.88,0.263,1.12,1
60.8,-0.899,1.01,0.801,1.57,1
60.8,-0.548,0.722,0.452,1.01,1
60.8,0.265,0.254,-0.26,0.45,1
60.8,0.901,-0.258,-0.412,1.02,1
60.9,1.15,-0.543,-0.0475,1.28,1
60.9,1.15,-0.592,0.307,1.33,1
60.9,1.11,-0.343,0.263,1.19,1
60.9,0.744,-0.465,-0.129,0.887,1
60.9,0.04,-1.82,-1.08,2.11,1
61.0,-0.837,-2.08,-1.63,3.86,1
61.0,-1.19,-2.34,-1.26,4.2,1
61.0,-1.27,-2.6,-0.54,2.95,1
61.0,-1.22,0.348,0.138,1.27,1
61.0,0.542,0.8185,0.94,3.06,1
61.0,1.88,1.2890000000000001,0.823,4.01,1
61.1,2.03,1.7595,-1.17,3.94,1
61.1,1.16,2.23,-2.48,3.53,1
61.1,0.737,1.43,-1.22,2.02,1
61.1,1.48,1.33,1.01,2.23,1
61.1,1.31,0.702,1.95,2.45,1
61.2,0.128,0.00478,1.41,1.42,1
61.2,-1.94,-0.824,0.631,2.2,1
61.2,-1.8966666666666667,-0.82,0.42,3.62,1
61.2,-1.8533333333333333,0.0975,0.74,3.51,1
61.2,-1.81,1.27,0.932,2.4,1
61.2,-0.868,1.35,0.651,1.73,1
61.3,-0.25,0.485,0.445,0.704,1
61.3,0.143,-0.545,0.865,1.03,1
61.3,-0.372,-1.47,1.65,2.24,1
61.3,-0.41,-1.05,0.774,1.37,1
61.3,0.438,0.918,1.1,1.5,1
61.4,0.394,1.24,1.42,1.92,1
61.4,-0.00803,0.829,1.01,1.3,1
61.4,-0.397,0.0562,0.359,0.538,1
61.4,-0.471,-0.477,0.386,0.774,1
61.4,-0.296,-0.511,0.338,0.681,1
61.4,-0.313,-0.425,0.268,0.592,1
61.5,-0.236,-0.384,0.224,0.503,1
61.5,-0.0845,-0.4,0.206,0.457,1
61.5,0.0261,-0.223,0.175,0.284,1
61.5,-0.0489,-0.145,0.14,0.207,1
61.5,-0.271,-0.148,0.343,0.461,1
61.6,-0.556,-0.236,0.705,0.928,1
61.6,-0.871,-0.224,1.05,1.38,1
61.6,-0.709,0.257,0.775,1.08,1
61.6,-0.436,0.875,0.169,0.992,1
61.6,-0.294,1.04,0.206,1.1,1
61.7,-0.295,0.769,0.119,0.832,1
61.7,-0.545,0.332,-0.378,0.741,1
61.7,-0.983,0.0609,-0.622,1.16,1
61.7,-1.48,-0.0229,-0.399,1.53,1
61.7,-1.86,0.0174,-0.279,1.88,1
61.7,-1.36,0.533,-0.777,1.66,1
61.8,-0.415,1.07,-1.12,1.6,1
61.8,0.056,1.19,-0.632,1.35,1
61.8,-0.233,0.877,0.341,0.969,1
61.8,-0.626,0.62,0.228,0.91,1
61.8,-0.953,-0.011,-0.169,0.968,1
61.9,-0.716,-1.11,0.168,1.33,1
61.9,0.571,-2.13,0.614,2.29,1
61.9,1.61,-2.12,0.928,2.82,1
61.9,1.96,-0.668,-0.573,2.14,1
61.9,1.79,1.0,-1.33,2.45,1
61.9,1.42,1.51,-1.92,2.83,1
62.0,1.7,1.06,-2.04,2.86,1
62.0,2.2,0.154,-1.46,2.65,1
62.0,2.22,-1.61,0.249,2.75,1
62.0,2.07,-2.39,0.666,3.23,1
62.0,2.07,-1.12,-0.168,2.36,1
62.1,1.31,-0.175,-0.591,1.44,1
62.1,0.289,0.00856,-1.23,1.26,1
62.1,-0.286,0.492,-1.53,1.64,1
62.1,-0.392,0.829,-0.746,1.18,1
62.1,-0.372,0.93,0.322,1.05,1
62.1,-0.311,0.817,0.618,1.07,1
62.2,0.27,0.529,0.398,0.715,1
62.2,0.757,0.151,0.0378,0.772,1
62.2,1.01,-0.0639,-0.328,1.06,1
62.2,0.914,-0.219,-0.734,1.19,1
62.2,0.448,-0.658,-1.1,1.36,1
62.3,-0.149,-1.82,-0.844,2.01,1
62.3,-0.527,-1.8933333333333333,-0.531,2.86,1
62.3,-0.347,-1.9666666666666668,-1.22,3.08,1
62.3,-0.401,-2.04,-0.55,2.15,1
62.3,-0.271,-0.105,0.394,0.489,1
62.4,0.77,1.99,0.204,2.14,1
62.4,1.87,2.65,-0.559,3.29,1
62.4,1.82,1.91,-0.926,2.79,1
62.4,1.08,0.892,-0.979,1.71,1
62.4,0.87,0.881,-1.55,1.99,1
62.4,0.632,0.789,-1.09,1.49,1
62.5,0.21,0.486,-0.744,0.913,1
62.5,-0.107,0.13,-0.191,0.255,1
62.5,-0.121,-0.263,0.0872,0.303,1
62.5,0.0273,-0.501,0.373,0.625,1
62.5,0.144,-0.424,0.431,0.622,1
62.6,0.113,0.15,-0.0121,0.188,1
62.6,0.222,0.46,0.534,0.739,1
62.6,0.611,0.715,1.0,1.37,1
62.6,0.314,0.868,1.74,1.97,1
62.6,-0.254,0.92,2.09,2.3,1
62.6,-0.574,1.08,2.02,2.36,1
62.7,-1.01,0.675,1.82,2.19,1
62.7,-1.01,0.399,1.67,1.99,1
62.7,-1.01,0.0796,1.43,1.75,1
62.7,-1.27,-0.276,0.992,1.64,1
62.7,-1.35,-0.415,0.65,1.56,1
62.8,-1.03,0.112,0.672,1.24,1
62.8,-0.709,0.296,0.572,0.958,1
62.8,-0.892,-0.0156,0.463,1.01,1
62.8,-1.1,-0.292,0.357,1.2,1
62.8,-1.27,-0.359,0.319,1.36,1
62.8,-1.2,-0.354,0.267,1.28,1
62.9,-1.07,-0.447,0.203,1.18,1
62.9,-1.02,-0.659,0.432,1.29,1
62.9,-0.989,-0.825,0.694,1.46,1
62.9,-1.01,-0.645,0.814,1.45,1
62.9,-0.969,-0.232,0.551,1.14,1
63.0,-0.913,0.206,0.147,0.947,1
63.0,-0.871,0.731,-0.113,1.14,1
63.0,-0.869,0.929,0.0269,1.27,1
63.0,-0.986,0.904,0.315,1.37,1
63.0,-1.14,0.899,0.367,1.5,1
63.1,-1.3,0.714,0.0222,1.48,1
63.1,-1.27,0.361,-1.05,1.69,1
63.1,-0.962,0.0683,-1.03,1.41,1
63.1,-0.503,0.0276,-0.251,0.563,1
63.1,0.63,0.785,-0.113,1.01,1
63.1,1.4,1.8,-0.377,2.31,1
63.2,1.01,1.67,-0.535,2.03,1
63.2,-0.138,0.488,-0.356,0.619,1
63.2,-1.38,-0.906,-0.218,1.67,1
63.2,-1.9,-1.98,-0.193,2.75,1
63.2,-1.24,-2.08,0.284,2.44,1
63.3,0.0727,-0.976,0.16,0.991,1
63.3,1.46,0.754,-0.0437,1.64,1
63.3,1.89,1.86,0.0172,2.65,1
63.3,1.87,2.07,-0.0946,2.8,1
63.3,1.77,1.32,-0.474,2.26,1
63.3,2.11,-0.0485,-0.396,2.14,1
63.4,2.15,-1.21,-0.527,2.53,1
63.4,1.29,-1.93,-0.236,2.33,1
63.4,0.27,-1.46,-0.491,1.57,1
63.4,0.742,-0.695,-1.0,1.43,1
63.4,1.67,-1.05,-1.81,2.67,1
63.5,1.49,-1.96,-1.76,3.03,1
63.5,1.59,-1.55,-1.2,2.53,1
63.5,1.35,-0.468,-0.526,1.52,1
63.5,0.913,0.236,0.0846,0.947,1
63.5,0.84,0.414,-0.0437,0.937,1
63.5,1.18,0.382,-0.725,1.43,1
63.6,1.37,0.12,-1.1,1.76,1
63.6,1.38,0.0736,-0.915,1.66,1
63.6,1.36,0.385,-0.422,1.47,1
63.6,1.36,0.861,0.724,1.77,1
63.6,1.28,0.997,1.07,1.95,1
63.7,0.401,0.274,0.221,0.534,1
63.7,-1.32,-1.44,-0.107,1.95,1
63.7,-2.5,-1.5666666666666667,-1.61,4.37,1
63.7,-2.105,-1.6933333333333334,-2.09,3.435,1
63.7,-1.71,-1.82,0.0399,2.5,1
63.8,2.9,1.41,1.65,3.63,1
63.8,2.265,1.315,0.697,4.013333333333334,1
63.8,1.6300000000000001,1.22,-2.05,4.3966666666666665,1
63.8,0.995,1.125,-1.63,4.78,1
63.8,-0.758,1.03,-1.21,1.76,1
63.8,-1.33,-0.505,1.32,1.94,1
63.9,-0.8,-1.05,1.6,2.07,1
63.9,-0.264,-1.35,0.682,1.53,1
63.9,-0.409,-1.93,-0.00207,1.98,1
63.9,-0.97,-1.28,0.161,1.61,1
63.9,-0.644,0.499,1.28,1.52,1
64.0,-0.51,1.38,1.96,2.45,1
64.0,-0.992,1.85,1.79,2.76,1
64.0,-1.39,1.77,1.49,2.7,1
64.0,-1.53,0.987,1.07,2.11,1
64.0,-1.82,-0.372,0.75,2.01,1
64.0,-1.5,-1.46,-0.152,2.1,1
64.1,-0.687,-1.6,0.234,1.76,1
64.1,0.182,-0.645,0.309,0.738,1
64.1,0.12,0.0158,0.394,0.412,1
64.1,-0.291,0.34,0.429,0.62,1
64.1,-0.616,0.495,0.693,1.05,1
64.2,-0.709,0.725,0.894,1.35,1
64.2,-0.582,0.819,0.754,1.26,1
64.2,-0.573,0.534,0.675,1.03,1
64.2,-0.744,0.161,0.683,1.02,1
64.2,-0.572,0.0264,0.695,0.901,1
64.2,-0.356,0.000723,0.801,0.877,1
64.3,-0.152,0.036,0.985,0.997,1
64.3,0.185,0.0309,0.425,0.465,1
64.3,0.224,0.04,-0.12,0.257,1
64.3,-0.0895,0.0332,0.123,0.155,1
64.3,-0.407,0.437,0.219,0.636,1
64.4,-0.375,1.3,-0.425,1.42,1
64.4,-0.266,1.87,-1.2,2.23,1
64.4,-0.69,1.81,-0.79,2.1,1
64.4,-1.58,1.44,0.284,2.16,1
64.4,-1.86,1.14,0.561,2.25,1
64.5,-0.704,1.0,-0.281,1.26,1
64.5,0.933,-0.642,-0.199,1.15,1
64.5,0.909,-0.63525,0.806,3.68,1
64.5,-0.0798,-0.6285000000000001,0.105,5.13,1
64.5,0.161,-0.62175,-0.68,3.48,1
64.5,1.06,-0.615,-1.47,1.92,1
64.6,0.832,1.38,-0.658,1.74,1
64.6,0.744,2.19,-0.899,2.48,1
64.6,0.611,1.73,-1.02,2.1,1
64.6,0.306,0.33,-0.981,1.08,1
64.6,0.188,-1.29,-1.0,1.65,1
64.7,1.04,-2.14,-1.12,2.63,1
64.7,1.33,-1.82,-1.41,2.65,1
64.7,1.23,-0.415,-0.798,1.52,1
64.7,0.755,-0.0741,-0.761,1.07,1
64.7,2.17,1.09,-0.846,2.57,1
64.7,1.83,0.799,0.477,2.05,1
64.8,0.393,0.952,1.66,1.95,1
64.8,-0.766,0.998,1.3,1.81,1
64.8,-0.783,0.752,0.4,1.16,1
64.8,-0.304,0.12,-0.456,0.561,1
64.8,0.125,-0.828,-1.34,1.58,1
64.9,0.327,-1.54,-1.65,2.28,1
64.9,0.383,-1.69,-1.56,2.33,1
64.9,-0.145,-1.73,0.494,1.81,1
64.9,-0.378,-1.91,0.904,2.15,1
64.9,-0.519,-1.95,0.0535,2.01,1
64.9,-0.68,-1.13,-1.17,1.77,1
65.0,-0.91,0.77,-0.0142,1.19,1
65.0,-0.111,1.1375000000000002,0.578,3.16,1
65.0,1.54,1.5050000000000001,0.975,4.45,1
65.0,2.48,1.8725,0.656,4.18,1
65.0,1.65,2.24,-0.813,2.9,1
65.1,0.38,1.55,-1.58,2.24,1
65.1,0.766,1.33,-1.69,2.28,1
65.1,1.66,0.415,-1.28,2.14,1
65.1,2.49,-0.545,-0.336,2.57,1
65.1,2.16,-1.83,-0.32,2.85,1
65.2,0.788,-1.4763333333333335,-1.4,3.65,1
65.2,-0.531,-1.122666666666667,-1.64,3.38,1
65.2,-1.32,-0.769,-0.715,1.69,1
65.2,-1.28,0.737,0.483,1.56,1
65.2,-1.63,0.792,0.448,1.86,1
65.2,-2.09,0.054,1.03,2.33,1
65.3,-2.32,-0.064,1.87,2.98,1
65.3,-2.81,0.203,2.11,3.51,1
65.3,-2.9,0.231,1.88,3.46,1
65.3,-2.03,0.287,1.59,2.59,1
65.3,-1.01,0.156,1.66,1.95,1
65.4,-0.294,0.659,1.42,1.59,1
65.4,0.182,0.601,0.936,1.13,1
65.4,0.424,-0.214,0.987,1.1,1
65.4,0.382,0.154,1.17,1.24,1
65.4,0.602,0.716,0.954,1.34,1
65.4,0.311,0.797,0.418,0.952,1
65.5,0.0419,0.539,0.204,0.578,1
65.5,-0.0314,0.0468,0.288,0.294,1
65.5,0.144,-0.399,0.42,0.596,1
65.5,-0.0857,-0.721,0.506,0.885,1
65.5,-0.242,-0.686,0.0668,0.731,1
65.6,0.102,-0.382,-0.2,0.443,1
65.6,0.666,0.0287,0.0318,0.667,1
65.6,0.729,0.17,0.0871,0.753,1
65.6,0.415,0.169,-0.215,0.497,1
65.6,0.0541,0.501,-0.721,0.879,1
65.6,0.23,1.05,-1.21,1.61,1
65.7,0.135,1.0,-1.21,1.58,1
65.7,-0.854,0.375,-0.217,0.958,1
65.7,-2.37,-0.187,0.178,2.39,1
65.7,-2.513333333333333,-0.154,0.148,3.41,1
65.7,-2.6566666666666667,0.114,-0.0891,3.74,1
65.8,-2.8,0.629,-0.544,2.92,1
65.8,-1.19,0.569,0.229,1.34,1
65.8,-0.0791,-0.291,1.48,1.51,1
65.8,0.31,-1.42,1.53,2.11,1
65.8,1.06,-1.21,-0.791,1.79,1
65.8,1.41,-0.169,-1.0,1.74,1
65.9,2.25,1.13,-0.472,2.56,1
65.9,2.94,1.58,0.22,3.34,1
65.9,2.71,1.03,0.24,3.48,1
65.9,2.48,-0.714,-0.609,2.65,1
65.9,1.57,-1.502,-1.92,3.62,1
66.0,1.41,-2.29,-1.75,3.21,1
66.0,1.28,-1.08,-1.19,2.05,1
66.0,0.944,-0.158,-0.816,1.26,1
66.0,0.799,0.0315,-1.1,1.36,1
66.0,0.893,0.447,-0.839,1.3,1
66.1,1.03,0.687,-0.137,1.25,1
66.1,1.0,0.505,0.194,1.14,1
66.1,0.702,0.266,0.163,0.768,1
66.1,0.628,0.167,-0.214,0.684,1
66.1,0.676,0.0276,-0.55,0.872,1
66.1,0.663,-0.109,-0.445,0.806,1
66.2,0.534,-0.177,-0.319,0.647,1
66.2,0.473,-0.0222,-0.109,0.485,1
66.2,0.262,0.291,0.533,0.661,1
66.2,-0.223,0.648,0.818,1.07,1
66.2,-0.76,0.822,0.697,1.32,1
66.3,-1.5,0.711,-0.29,1.69,1
66.3,-2.16,0.00876,-1.15,2.45,1
66.3,-1.47,-1.0,-1.58,2.38,1
66.3,0.169,-1.72,-0.30500000000000016,3.42,1
66.3,2.5,-2.26,0.97,3.51,1
66.3,2.11,-1.64,0.2905,2.785,1
66.4,1.72,1.06,-0.389,2.06,1
66.4,1.01,1.02925,-1.18,4.7,1
66.4,1.21,0.9985,-1.87,4.550000000000001,1
66.4,0.998,0.9677500000000001,-1.85,4.4,1
66.4,0.326,0.937,-0.318,1.04,1
66.5,0.288,-1.07,1.06,1.54,1
66.5,0.616,-1.88,0.638,2.08,1
66.5,-0.163,-1.7666666666666666,-0.069,3.38,1
66.5,-1.58,-1.6533333333333333,0.183,4.11,1
66.5,-2.01,-1.54,0.786,2.65,1
66.5,-1.33,0.659,1.21,1.91,1
66.6,-0.945,1.64,0.652,2.0,1
66.6,-1.88,1.23,1.13,2.52,1
66.6,-2.76,0.642,1.17,3.06,1
66.6,-2.82,0.262,0.667,2.91,1
66.6,-2.16,-0.424,0.535,2.26,1
66.7,-1.31,-0.784,0.103,1.53,1
66.7,-0.571,-0.0239,0.259,0.627,1
66.7,0.0537,0.666,0.924,1.14,1
66.7,-0.106,0.613,1.39,1.52,1
66.7,-0.229,0.426,1.03,1.14,1
66.8,-0.529,0.333,0.487,0.793,1
66.8,-0.574,0.199,-0.0267,0.608,1
66.8,-0.288,-0.0244,-0.119,0.313,1
66.8,0.201,-0.132,0.351,0.425,1
66.8,0.0373,-0.221,0.376,0.438,1
66.8,-0.253,-0.225,-0.225,0.406,1
66.9,-0.299,-0.193,-0.0833,0.365,1
66.9,-0.295,-0.37,0.093,0.482,1
66.9,-0.246,-0.57,0.114,0.631,1
66.9,-0.066,-0.605,0.321,0.687,1
66.9,0.122,-0.349,0.26,0.452,1
67.0,0.104,0.0272,0.248,0.27,1
67.0,0.0604,0.219,0.383,0.446,1
67.0,0.097,0.148,0.607,0.632,1
67.0,-0.181,0.18,0.982,1.01,1
67.0,-0.453,0.445,0.767,0.996,1
67.0,-0.333,0.658,-0.345,0.814,1
67.1,-0.23,0.393,-0.8,0.921,1
67.1,-0.693,-0.4,-0.824,1.15,1
67.1,-1.56,-1.19,-0.352,2.0,1
67.1,-1.52,-1.04,-0.617,1.94,1
67.1,-0.815,0.168,-0.968,1.28,1
67.2,-0.56,0.989,-0.46,1.23,1
67.2,-0.536,1.27,-0.377,1.43,1
67.2,-0.632,1.32,-0.213,1.48,1
67.2,-0.94,1.27,-0.0562,1.58,1
67.2,-0.788,1.79,-0.444,2.01,1
67.2,-0.754,1.57,-0.588,1.84,1
67.3,-0.251,0.432,0.0537,0.502,1
67.3,0.399,-1.76,1.39,2.28,1
67.3,1.19,-1.343,2.07,3.8,1
67.3,2.17,-0.926,0.738,2.47,1
67.3,2.09,1.47,-0.934,2.72,1
67.4,1.56,1.85,-0.964,2.6,1
67.4,1.3,0.742,-1.08,1.85,1
67.4,1.39,-0.736,-1.08,1.91,1
67.4,1.28,-2.28,-0.584,2.68,1
67.4,0.801,-2.46,-0.484,2.63,1
67.5,0.898,-1.12,-1.1,1.8,1
67.5,0.835,-0.117,-1.25,1.51,1
67.5,0.96,0.0959,-0.757,1.23,1
67.5,0.724,0.413,-0.499,0.972,1
67.5,0.426,0.79,-0.207,0.921,1
67.5,0.0756,0.838,0.126,0.851,1
67.6,-0.301,0.58,0.467,0.803,1
67.6,-0.409,0.434,0.512,0.786,1
67.6,-0.293,0.36,0.0866,0.472,1
67.6,-0.0328,0.318,-0.603,0.683,1
67.6,0.26,0.169,-1.14,1.18,1
67.7,0.211,-0.0768,-0.639,0.678,1
67.7,-0.0442,-0.491,-0.237,0.547,1
67.7,-0.277,-0.747,-0.0108,0.796,1
67.7,-0.886,-0.955,-0.322,1.34,1
67.7,-1.36,-1.33,-1.16,2.23,1
67.7,-1.36,-2.21,-0.886,2.74,1
67.8,-0.853,-2.42,-0.0497,2.56,1
67.8,-0.558,-1.0,-1.07,1.57,1
67.8,0.306,0.997,-1.1,1.52,1
67.8,2.18,1.75,2.4,3.68,1
67.8,2.1100000000000003,1.24,2.55,4.35,1
67.9,2.04,1.21,-1.73,2.94,1
67.9,0.5,2.5,-1.6400000000000001,3.82,1
67.9,0.146,2.61,-1.55,3.03,1
67.9,0.394,1.74,-0.448,1.84,1
67.9,0.667,0.32,0.83,1.11,1
67.9,0.68,-0.69,0.966,1.37,1
68.0,0.00597,-1.52,-0.0645,1.52,1
68.0,-0.978,-1.92,-0.369,2.18,1
68.0,-1.13,-1.13,0.193,1.6,1
68.0,-0.454,0.512,0.689,0.971,1
68.0,-0.227,1.29,1.17,1.76,1
68.1,-0.727,1.43,1.91,2.49,1
68.1,-1.4,1.04,2.23,2.83,1
68.1,-1.28,1.02,1.69,2.36,1
68.1,-1.68,0.246,1.71,2.41,1
68.1,-1.83,-0.422,1.28,2.27,1
68.2,-1.32,-0.624,0.915,1.73,1
68.2,-0.545,-0.486,1.05,1.28,1
68.2,-0.0515,-0.333,0.814,0.881,1
68.2,-0.203,-0.392,0.5,0.667,1
68.2,-0.565,-0.433,0.192,0.738,1
68.2,-0.864,-0.411,0.183,0.974,1
68.3,-0.994,-0.166,0.248,1.04,1
68.3,-0.789,0.0507,0.375,0.875,1
68.3,-0.358,0.196,0.246,0.476,1
68.3,-0.0408,0.169,0.234,0.291,1
68.3,-0.136,-0.0673,0.388,0.417,1
