Time (s),Linear Acceleration x (m/s^2),Linear Acceleration y (m/s^2),Linear Acceleration z (m/s^2),Absolute acceleration (m/s^2),Walking(0)/Jumping(1)
0.119,0.27,-0.015,-0.253,0.371,1
0.137,0.422,0.183,-0.585,0.745,1
0.155,0.167,-0.196,-0.465,0.532,1
0.174,-0.12,-0.0952,-0.297,0.334,1
0.192,-0.0708,0.271,0.172,0.328,1
0.211,0.103,0.338,0.175,0.394,1
0.229,-0.283,-0.338,0.442,0.624,1
0.248,-0.554,-0.843,0.457,1.11,1
0.266,-0.794,-0.619,0.607,1.18,1
0.284,1.1,-0.0116,-0.708,1.31,1
0.303,1.1,0.285,0.501,1.24,1
0.321,-0.175,0.227,0.241,0.375,1
0.34,-0.885,-0.841,0.998,1.58,1
0.358,-1.21,0.312,0.285,1.28,1
0.376,0.445,0.742,-0.486,0.992,1
0.395,0.654,0.176,-0.939,1.16,1
0.413,-0.0639,0.177,-2.2,2.21,1
0.432,-0.735,0.632,-2.2,2.41,1
0.45,-0.797,1.23,-2.57,2.96,1
0.468,-0.937,1.48,-2.59,3.13,1
0.487,-2.37,1.05,-1.16,2.85,1
0.505,-2.7433333333333336,1.73,0.921,4.22,1
0.524,-3.1166666666666667,0.296,1.3,4.13,1
0.542,-3.49,0.204,0.833,3.59,1
0.561,-2.54,-0.163,0.102,2.55,1
0.579,-1.54,-1.91,-1.08,2.68,1
0.597,-1.54,-1.96,-1.39,2.86,1
0.616,-1.29,-1.82,-1.05,2.46,1
0.634,0.0196,-0.984,-0.592,1.15,1
0.653,-1.21,-3.05,1.34,3.54,1
0.671,-0.347,-3.97,2.33,4.62,1
0.689,1.66,-4.28,1.34,4.79,1
0.708,0.498,-4.37,0.473,4.43,1
0.726,2.84,-4.29,-0.946,5.23,1
0.745,3.0866666666666664,-4.31,-1.1,5.91,1
0.763,3.3333333333333335,-4.63,0.709,6.29,1
0.782,3.58,-4.47,-0.292,5.73,1
0.8,3.22,-4.55,-1.69,5.82,1
0.818,3.71,-4.43,-1.81,6.06,1
0.837,3.5533333333333332,-4.15,0.00364,6.55,1
0.855,3.396666666666667,-3.89,2.09,7.18,1
0.874,3.24,-2.98,4.26,6.13,1
0.892,1.02,-2.17,3.76,5.01,1
0.91,0.324,-1.15,3.26,3.47,1
0.929,-0.185,-0.532,2.57,2.64,1
0.947,-0.53,0.0969,1.88,1.95,1
0.966,-1.73,1.82,1.17,2.77,1
0.984,-3.55,2.26,0.782,4.28,1
1.0,-3.513333333333333,2.03,1.16,4.92,1
1.02,-3.4766666666666666,1.72,0.823,5.95,1
1.04,-3.44,2.87,0.267,6.56,1
1.06,-3.4033333333333333,2.48,-0.358,7.1,1
1.08,-3.3666666666666667,2.45,-1.47,7.05,1
1.09,-3.33,2.73,-4.0,7.14,1
1.11,-3.2933333333333334,3.65,-2.6917666666666666,7.23,1
1.13,-3.256666666666667,1.7,-1.3835333333333333,7.32,1
1.15,-3.22,1.11,-0.0753,3.41,1
1.17,-2.73,1.45,4.15,5.18,1
1.19,-1.46,1.78,2.69,3.54,1
1.21,1.22,1.84,0.439,2.25,1
1.22,3.61,0.671,0.11,3.67,1
1.24,2.625,-1.3,1.76,4.48,1
1.26,1.64,-1.17,2.34,3.09,1
1.28,0.397,-1.28,-1.87,2.3,1
1.3,0.674,-0.148,-4.04,4.1,1
1.32,0.393,-1.1,-1.57,1.96,1
1.33,0.673,-1.68,-0.227,1.83,1
1.35,1.42,-1.04,-0.0702,1.76,1
1.37,2.67,-0.0617,-0.446,2.71,1
1.39,3.65,0.577,-0.549,3.73,1
1.41,2.2,-0.0656,1.13,2.47,1
1.43,1.38,0.355,1.98,2.44,1
1.44,-1.91,-0.768,1.99,2.87,1
1.46,-2.07,-1.7,1.16,6.26,1
1.48,-2.23,-1.78,-2.82,5.4,1
1.5,-2.39,-2.28,-2.41,4.08,1
1.52,-0.554,-0.923,-3.21,3.39,1
1.54,-0.539,2.64,-2.72,3.83,1
1.55,0.0809,3.61,1.47,3.9,1
1.57,0.897,-2.38,2.51,3.57,1
1.59,3.32,-3.97,1.7545,3.52,1
1.61,0.5349999999999997,5.52,0.999,3.4699999999999998,1
1.63,-2.25,0.934,2.0595,3.42,1
1.65,0.798,0.985,3.12,3.37,1
1.67,3.08,-2.7,-0.228,4.1,1
1.68,-0.893,-0.541,2.19,2.43,1
1.7,-0.31,-0.0687,1.77,1.79,1
1.72,0.84,0.14,-1.31,1.56,1
1.74,-0.985,-2.22,0.355,2.46,1
1.76,-0.589,-3.78,-1.67,4.17,1
1.78,-1.25,-1.21,-1.07,2.04,1
1.79,0.317,1.62,-0.164,1.66,1
1.81,-0.901,-0.71,0.913,1.47,1
1.83,-0.875,-1.74,1.91,2.73,1
1.85,-1.06,-1.13,0.828,1.76,1
1.87,3.58,2.78,0.449,4.56,1
1.89,1.41,2.24,-1.31,2.95,1
1.9,-0.543,-0.0569,-0.483,0.729,1
1.92,-2.78,-2.99,0.281,4.1,1
1.94,-2.02,-1.83,0.823,2.85,1
1.96,-1.73,-1.27,0.611,2.23,1
1.98,-0.59,-0.889,0.871,1.38,1
2.0,-0.833,-1.22,0.357,1.52,1
2.02,-0.339,-0.867,-0.485,1.05,1
2.03,-0.268,-0.00216,-0.25,0.366,1
2.05,0.477,1.43,2.47,2.89,1
2.07,-0.16,1.86,0.172,1.87,1
2.09,-0.761,0.954,0.118,1.23,1
2.11,-0.381,1.11,-0.258,1.2,1
2.13,-0.359,0.0928,0.265,0.455,1
2.14,-0.27,0.375,0.0967,0.472,1
2.16,-0.498,0.0814,-0.489,0.703,1
2.18,-0.0471,-0.294,-0.0643,0.305,1
2.2,0.286,-0.035,-0.283,0.404,1
2.22,0.243,-0.23,-0.134,0.36,1
2.24,0.342,-0.573,-0.0727,0.671,1
2.25,0.6,-0.287,0.134,0.678,1
2.27,0.754,-0.293,0.264,0.851,1
2.29,0.936,-0.233,0.0242,0.965,1
2.31,1.08,-0.104,0.0277,1.09,1
2.33,1.26,0.605,0.0884,1.4,1
2.35,0.73,0.428,-0.47,0.968,1
2.37,0.588,0.224,-1.05,1.23,1
2.38,-0.198,1.89,0.0201,1.9,1
2.4,-1.46,3.15,-0.34,3.49,1
2.42,-1.16,2.96,0.997,3.33,1
2.44,0.181,0.376,0.35,0.545,1
2.46,0.604,1.86,0.197,1.96,1
2.48,0.457,-1.76,-0.389,1.86,1
2.49,0.623,-2.55,-0.185,2.63,1
2.51,-0.107,1.03,1.0,1.44,1
2.53,0.678,-0.447,-0.369,0.892,1
2.55,0.0621,-4.19,-0.877,4.28,1
2.57,0.0626,-0.787,0.0177,0.789,1
2.59,-0.0726,-2.44,-0.9,2.6,1
2.6,-0.16,-0.937,-0.322,1.0,1
2.62,-0.213,-1.16,-0.132,1.19,1
2.64,-0.481,-0.65,-0.465,0.933,1
2.66,-0.526,0.111,-0.481,0.721,1
2.68,0.0763,-0.583,-0.235,0.633,1
2.7,0.298,0.313,-0.64,0.772,1
2.72,-0.0429,2.24,-0.274,2.26,1
2.73,0.149,1.95,-0.384,1.99,1
2.75,0.5,0.383,-0.757,0.984,1
2.77,-1.09,-0.299,-0.511,1.24,1
2.79,-1.36,-0.892,-0.451,1.69,1
2.81,-0.587,-2.72,-0.107,2.78,1
2.83,0.434,-3.31,1.73,3.76,1
2.84,0.571,-2.9,-0.775,3.06,1
2.86,0.124,-4.91,-1.11,5.04,1
2.88,-0.347,-5.015000000000001,-0.0506,6.31,1
2.9,-3.07,-5.12,-0.974,6.05,1
2.92,-3.1849999999999996,-4.78,0.182,7.32,1
2.94,-3.3,-4.44,2.15,5.94,1
2.95,-2.59,-4.26,0.288,4.99,1
2.97,-2.3,-5.0,1.82,5.8,1
2.99,-1.57,-4.51,-0.676,4.82,1
3.01,0.125,-3.41,-1.52,3.73,1
3.03,1.48,-1.25,-1.725,5.25,1
3.05,1.22,-0.799,-1.93,5.7,1
3.06,0.193,0.335,-2.135,5.27,1
3.08,-1.78,0.777,-2.34,3.04,1
3.1,-2.08,1.54,-1.74,3.12,1
3.12,-2.73,2.54,0.222,3.73,1
3.14,-3.13,3.17,2.45,5.43,1
3.16,-3.53,2.14,1.53,4.4,1
3.18,-3.21,3.3,3.3,5.66,1
3.19,-2.16,3.97,3.86,5.94,1
3.21,-0.929,4.89,3.87,7.28,1
3.23,-0.565,4.56,3.88,6.99,1
3.25,-0.371,4.16,3.89,5.71,1
3.27,-1.06,2.69,3.11,4.25,1
3.29,-1.12,1.98,1.55,2.75,1
3.3,-1.32,1.41,0.659,2.04,1
3.32,-1.23,0.915,0.363,1.58,1
3.34,-0.704,-0.119,-0.135,0.727,1
3.36,1.18,-0.899,-0.109,1.49,1
3.38,2.17,-1.19,1.94,3.15,1
3.4,3.58,-0.646,2.89,4.64,1
3.41,3.43,0.0863,2.6500000000000004,4.805,1
3.43,3.28,1.55,2.41,4.97,1
3.45,3.13,2.01,1.985,6.9,1
3.47,1.49,0.89,1.56,2.33,1
3.49,1.6233333333333333,1.64,0.09,4.67,1
3.51,1.7566666666666666,3.63,-2.33,6.32,1
3.53,1.89,2.84,-0.914,3.53,1
3.54,1.67,3.84,0.0865,4.19,1
3.56,-0.374,3.42,0.238,3.45,1
3.58,-0.116,2.79,-3.08,4.16,1
3.6,-0.769,1.19,-0.558,1.53,1
3.62,1.93,4.55,2.9,5.73,1
3.64,3.16,3.715,2.26,4.655,1
3.65,1.99,2.88,0.771,3.58,1
3.67,3.33,2.22,-0.507,4.03,1
3.69,3.7,2.85,1.38,4.87,1
3.71,2.14,2.6,2.35,4.11,1
3.73,0.714,1.99,3.44,4.04,1
3.75,0.0501,1.8,3.55,5.03,1
3.76,-0.733,1.48,3.66,4.89,1
3.78,-0.958,1.48,3.77,4.73,1
3.8,-0.801,1.37,3.88,4.19,1
3.82,-1.86,0.814,3.76,4.96,1
3.84,-2.64,0.459,3.6399999999999997,5.63,1
3.86,-2.5775,-0.138,3.52,5.88,1
3.88,-2.515,-1.01,3.4,5.65,1
3.89,-2.4525,-1.51,3.39,7.06,1
3.91,-2.39,-1.67,3.3,7.53,1
3.93,-2.3275,-2.24,2.37,7.452,1
3.95,-2.265,-1.87,0.978,7.374,1
3.97,-2.2025,-1.92,-0.371,7.296,1
3.99,-2.14,-2.37,-1.13,7.218,1
4.0,-2.0775,-4.35,-3.3,7.14,1
4.02,-2.015,-3.33,-3.575,6.415,1
4.04,-1.9525000000000001,-0.376,-3.85,5.69,1
4.06,-1.89,1.5,-1.45,2.82,1
4.08,-1.9,0.0585,-0.0767,1.9,1
4.1,-0.174,-0.95,1.1,1.47,1
4.11,2.3,-0.655,-1.72,2.94,1
4.13,0.591,-0.449,-0.293,0.798,1
4.15,1.0928,-0.523,-0.453,3.93,1
4.17,1.5946,0.059,-0.765,6.04,1
4.19,2.0964,-1.68,-0.297,5.58,1
4.21,2.5982000000000003,-0.823,-0.408,4.22,1
4.23,3.1,-1.88,-0.646,3.68,1
4.24,3.03,-0.142,-0.995,3.19,1
4.26,-3.33,-5.2,-1.31,6.32,1
4.28,-2.73,-3.0,-1.37,5.94,1
4.3,-2.13,-1.67,-1.03,2.9,1
4.32,-0.697,-1.34,-3.29,3.62,1
4.34,-0.522,3.35,1.4,3.67,1
4.35,-2.66,-0.464,1.2,2.96,1
4.37,-3.3,0.299,-0.366,3.33,1
4.39,-1.39,0.81,-0.757,1.78,1
4.41,0.972,0.972,-0.486,1.46,1
4.43,1.49,2.15,0.235,2.63,1
4.45,1.23,1.96,0.86,2.47,1
4.46,0.49,1.93,0.647,2.1,1
4.48,-0.669,-0.0415,-0.359,0.76,1
4.5,-1.23,-1.33,-1.88,2.61,1
4.52,-1.23,-1.48,-1.58,2.49,1
4.54,-1.34,-0.981,-0.901,1.89,1
4.56,-0.808,-0.594,-1.02,1.43,1
4.57,0.373,-0.67,-0.296,0.822,1
4.59,2.1,-0.246,0.0329,2.11,1
4.61,2.3666666666666667,0.157,-0.567,4.92,1
4.63,2.6333333333333333,3.25,2.14,7.09,1
4.65,2.9,0.551,2.35,3.77,1
4.67,-2.88,-2.31,-0.0775,3.69,1
4.69,-2.074333333333333,-4.63,-1.12,5.075,1
4.7,-1.2686666666666666,-1.2,2.34,6.46,1
4.72,-0.463,-1.55,-0.876,1.84,1
4.74,-0.543,0.605,0.0758,0.817,1
4.76,-1.58,-0.133,-0.508,1.66,1
4.78,-0.811,1.09,-1.58,2.08,1
4.8,0.66,-0.259,-0.994,1.22,1
4.81,0.981,2.26,-1.87,3.09,1
4.83,-2.3,1.16,-3.15,4.07,1
4.85,1.56,3.09,0.875,3.57,1
4.87,1.5866666666666667,1.86,-0.96,7.48,1
4.89,1.6133333333333333,0.481,0.126,6.19,1
4.91,1.64,-3.99,0.727,4.38,1
4.92,2.2,-2.64,0.437,3.47,1
4.94,1.2,-1.51,1.25,2.3,1
4.96,-1.75,-3.06,0.737,3.6,1
4.98,-2.0175,-3.05,-1.68,7.02,1
5.0,-2.285,-1.89,-1.44,6.51,1
5.02,-2.5524999999999998,-0.748,-1.9,6.0,1
5.04,-2.82,-2.28,-1.37,3.88,1
5.05,-1.07,-3.07,-1.19,3.46,1
5.07,0.345,-2.68,0.577,4.62,1
5.09,1.76,-2.43,3.41,4.54,1
5.11,2.135,-1.33,-0.55,5.44,1
5.13,2.51,0.47666666666666657,-1.4,5.466666666666667,1
5.15,2.885,2.283333333333333,-1.62,5.493333333333333,1
5.16,3.26,4.09,-1.77,5.52,1
5.18,1.97,-0.294,-2.14,2.93,1
5.2,3.61,-0.639,0.559,3.71,1
5.22,1.95,-1.47,1.94,3.12,1
5.24,-2.38,-3.02,1.82,4.25,1
5.26,-2.84,-4.17,0.748,5.1,1
5.27,-2.39,-4.98,0.255,5.52,1
5.29,-1.23,-5.39,1.83,5.82,1
5.31,0.117,-5.76,2.49,6.28,1
5.33,1.46,-4.85,1.94,6.4,1
5.35,0.933,-3.94,-2.37,4.7,1
5.37,-1.47,-1.77,-2.15,3.15,1
5.39,-0.571,0.103,-1.8077999999999999,6.68,1
5.4,1.13,5.45,-1.4656,5.685,1
5.42,2.31,2.7666666666666666,-1.1234000000000002,4.6899999999999995,1
5.44,1.429,0.08333333333333304,-0.7812000000000001,3.6950000000000003,1
5.46,0.548,-2.6,-0.439,2.7,1
5.48,1.21,-0.177,-0.968,1.56,1
5.5,0.135,-0.679,0.689,0.977,1
5.51,-0.581,-0.234,2.55,2.63,1
5.53,-0.682,0.277,1.07,1.3,1
5.55,-0.623,-0.203,-1.21,1.37,1
5.57,0.989,1.43,-2.15,2.76,1
5.59,0.331,-0.529,0.0584,0.627,1
5.61,-0.426,-0.0277,0.67,0.794,1
5.62,1.3870000000000002,2.57615,3.2,3.4419999999999997,1
5.64,3.2,5.18,0.109,6.09,1
5.66,-2.71,-1.34,-0.755,3.12,1
5.68,1.31,-0.327,0.0259,1.35,1
5.7,0.648,-1.11,0.758,1.49,1
5.72,-0.262,-0.381,0.149,0.486,1
5.74,-0.895,-1.75,-2.08,2.86,1
5.75,1.9,-0.612,0.472,2.05,1
5.77,1.24,-1.67,2.55,3.29,1
5.79,1.91,0.605,0.883,2.19,1
5.81,0.438,1.27,0.173,1.36,1
5.83,1.35,1.85,-1.11,2.55,1
5.85,0.773,0.904,-0.396,1.25,1
5.86,1.59,-1.15,1.41,2.42,1
5.88,3.59,-3.1,-0.137,4.74,1
5.9,3.07,-3.9,0.143,4.97,1
5.92,2.3328571428571427,3.08,-1.43,6.65,1
5.94,1.5957142857142854,3.81,0.922,6.825,1
5.96,0.8585714285714281,2.19,1.4460000000000002,7.0,1
5.97,0.121428571428571,1.7,1.97,6.89,1
5.99,-0.6157142857142861,0.337,-2.77,6.78,1
6.01,-1.3528571428571436,0.469,-3.12,6.67,1
6.03,-2.09,0.0768,-2.52,3.28,1
6.05,-1.23,-0.151,0.154,1.24,1
6.07,2.38,1.1,3.9,4.7,1
6.08,3.29,0.378,1.834,5.58,1
6.1,0.205,-3.4,-0.232,3.41,1
6.12,0.273,-1.96,-1.66,2.58,1
6.14,-0.344,0.234,-1.55,1.6,1
6.16,-0.142,0.572,-0.103,0.598,1
6.18,0.111,0.129,0.124,0.211,1
6.2,0.208,0.0593,-0.132,0.253,1
6.21,0.462,0.101,0.0337,0.474,1
6.23,0.205,0.314,-0.256,0.454,1
6.25,-0.623,0.484,0.314,0.849,1
6.27,0.577,-0.205,-0.432,0.75,1
6.29,-0.156,-0.0135,0.0591,0.167,1
6.31,-0.239,0.148,0.556,0.624,1
6.32,-0.225,-0.0565,0.618,0.66,1
6.34,-0.329,-0.0141,0.672,0.749,1
6.36,-0.394,0.0289,0.713,0.816,1
6.38,-0.451,-0.00884,0.833,0.947,1
6.4,-0.583,-0.08,1.01,1.17,1
6.42,-0.669,-0.132,1.02,1.23,1
6.43,-0.701,-0.113,0.866,1.12,1
6.45,-0.645,-0.18,0.794,1.04,1
6.47,-0.564,-0.1,0.728,0.926,1
6.49,-0.289,0.433,0.208,0.56,1
6.51,0.63,0.766,-0.00968,0.991,1
6.53,1.01,0.591,-0.0422,1.17,1
6.55,0.698,-0.0192,-0.0707,0.702,1
6.56,0.77,0.00536,0.22,0.8,1
6.58,0.406,0.503,-0.0904,0.652,1
6.6,0.612,1.48,-0.746,1.77,1
6.62,0.871,1.99,-1.24,2.5,1
6.64,1.0,1.49,-1.58,2.39,1
6.66,1.18,0.461,-1.96,2.34,1
6.67,0.601,-1.01,-2.37,2.65,1
6.69,0.56,0.0147,-2.77,2.82,1
6.71,0.0464,3.11,-1.97,3.68,1
6.73,-1.71,5.5,-0.944,5.83,1
6.75,-1.01,2.28,-1.52,2.92,1
6.77,0.861,-1.73,-1.79,2.63,1
6.78,1.64,-2.03,0.245,2.62,1
6.8,1.74,-2.55,3.96,5.02,1
6.82,1.48,-4.48,3.575,6.82,1
6.84,0.827,-4.4,3.19,5.5,1
6.86,0.0919,-3.28,1.65,3.67,1
6.88,-1.11,-2.33,0.447,2.62,1
6.9,-1.28,-1.6,0.401,2.08,1
6.91,0.364,-1.87,-0.125,1.91,1
6.93,1.66,-2.89,-0.877,3.45,1
6.95,2.4,-3.52,-0.976,4.37,1
6.97,1.94,-3.29,-0.994,3.95,1
6.99,1.44,-1.71,-0.79,2.38,1
7.01,1.04,0.521,0.0104,1.16,1
7.02,0.746,1.86,1.17,2.32,1
7.04,0.732,0.908,0.476,1.26,1
7.06,0.846,-0.86,-0.815,1.46,1
7.08,0.741,-0.209,-0.00477,0.771,1
7.1,0.0958,1.58,0.521,1.67,1
7.12,-0.72,2.77,0.938,3.01,1
7.13,-0.672,1.76,0.358,1.92,1
7.15,-0.222,3.15,-0.978,3.31,1
7.17,-0.138,4.75,-1.02,4.86,1
7.19,-1.37,1.06,-1.18,2.09,1
7.21,-1.64,-1.4,-2.17,3.06,1
7.23,-1.38,-1.07,-2.14,2.76,1
7.24,-0.888,1.12,-0.551,1.53,1
7.26,-1.32,1.4,0.956,2.14,1
7.28,-1.57,0.245,-0.161,1.6,1
7.3,-1.33,0.303,-0.994,1.69,1
7.32,-1.67,0.778,-0.157,1.85,1
7.34,-1.76,0.408,0.703,1.94,1
7.36,-1.62,-0.24,1.13,1.99,1
7.37,-0.726,-0.39,0.697,1.08,1
7.39,0.234,-0.256,-0.0769,0.356,1
7.41,0.652,-0.17,0.117,0.684,1
7.43,0.425,-0.297,-0.805,0.957,1
7.45,0.26,-0.526,-1.21,1.35,1
7.47,0.0832,-0.65,-0.79,1.03,1
7.48,-0.0954,-0.373,0.783,0.872,1
7.5,-0.524,-0.383,1.55,1.68,1
7.52,-0.764,-0.656,1.27,1.62,1
7.54,-0.706,-0.83,0.611,1.25,1
7.56,-0.356,-0.425,-0.17,0.58,1
7.58,0.0657,0.382,-0.797,0.886,1
7.59,0.244,1.43,-0.674,1.6,1
7.61,0.223,2.95,-0.957,3.11,1
7.63,0.0655,3.46,-1.53,3.79,1
7.65,-0.184,3.09,-2.09,3.74,1
7.67,-0.381,2.41,-2.01,3.16,1
7.69,-0.709,1.07,-1.84,2.24,1
7.71,-0.37,0.131,-1.12,1.19,1
7.72,0.577,1.02,-0.52,1.28,1
7.74,1.7,4.81,0.856,5.17,1
7.76,3.01,3.5199999999999996,1.2,6.71,1
7.78,3.67,2.23,0.683,4.35,1
7.8,2.52,-0.132,-0.518,2.58,1
7.82,0.0457,-1.15,-1.2,1.66,1
7.83,-1.27,-0.31,-0.169,1.31,1
7.85,-1.32,-0.201,2.12,2.5,1
7.87,-0.969,-1.74,3.66,4.17,1
7.89,-0.271,-3.01,3.57,4.67,1
7.91,-0.467,-3.77,3.29,5.02,1
7.93,-0.332,-3.71,2.82,4.67,1
7.94,-0.314,-3.42,2.27,4.12,1
7.96,-0.124,-3.59,2.04,4.13,1
7.98,0.229,-3.66,1.55,3.98,1
8.0,0.758,-3.61,0.858,3.79,1
8.02,1.15,-3.55,0.216,3.74,1
8.04,1.41,-3.36,-0.355,3.66,1
8.06,1.57,-3.15,-0.291,3.53,1
8.07,1.45,-2.6,0.184,2.98,1
8.09,1.26,-1.77,1.01,2.39,1
8.11,1.43,-0.228,2.05,2.51,1
8.13,1.18,0.869,2.93,3.28,1
8.15,1.33,1.18,2.49,3.06,1
8.17,1.52,2.44,1.26,3.14,1
8.18,2.4,5.35,-0.716,5.91,1
8.2,2.15,3.7325,-3.3,7.32,1
8.22,0.0282,2.1149999999999998,-3.92,6.915,1
8.24,-1.11,0.4974999999999996,-1.14,6.51,1
8.26,-0.523,-1.12,-0.521,1.35,1
8.28,0.538,-3.97,-0.116,4.0,1
8.29,1.1,-4.43,-0.169,4.57,1
8.31,1.5,-2.53,0.88,3.07,1
8.33,1.57,1.16,1.11,2.24,1
8.35,-0.807,0.245,-0.121,0.852,1
8.37,-2.67,-0.904,-0.808,2.93,1
8.39,-3.23,-0.396,0.327,3.27,1
8.41,-3.035,-0.222,0.965,3.97,1
8.42,-2.84,0.722,0.734,3.02,1
8.44,-0.518,1.06,0.458,1.26,1
8.46,1.08,2.76,-0.401,2.99,1
8.48,0.775,3.88,-1.95,4.41,1
8.5,-0.403,2.71,-2.95,4.03,1
8.52,-0.826,0.695,-1.72,2.03,1
8.53,-1.26,-0.418,0.00313,1.33,1
8.55,-1.07,-0.524,0.523,1.3,1
8.57,-0.541,-0.565,0.352,0.858,1
8.59,-0.379,-0.791,0.384,0.957,1
8.61,0.11,-0.456,0.483,0.674,1
8.63,0.22,0.0913,-0.183,0.3,1
8.64,-0.0245,0.633,-0.811,1.03,1
8.66,-0.702,1.04,-1.09,1.67,1
8.68,-1.35,1.56,-0.99,2.29,1
8.7,-1.48,2.45,-0.969,3.02,1
8.72,-1.32,2.64,-0.614,3.01,1
8.74,-0.794,1.12,-0.881,1.63,1
8.75,-0.077,-0.598,-0.468,0.763,1
8.77,0.369,-0.98,0.641,1.23,1
8.79,1.96,2.22,1.08,3.15,1
8.81,3.07,5.24,2.65,6.63,1
8.83,3.25,3.28,2.12,5.08,1
8.85,2.37,1.54,-1.2,3.07,1
8.87,-0.0665,0.193,-3.61,3.61,1
8.88,-1.96,-1.14,-2.7,3.52,1
8.9,-2.27,-1.01,1.2,2.76,1
8.92,-0.92,-1.29,1.8175,5.03,1
8.94,0.00749,-2.8,2.4349999999999996,5.75,1
8.96,0.469,-4.71,3.0524999999999998,6.46,1
8.98,0.242,-4.89,3.67,6.12,1
8.99,0.0811,-4.45,2.85,5.29,1
9.01,0.131,-4.33,2.28,4.9,1
9.03,0.373,-4.28,1.37,4.51,1
9.05,0.767,-4.39,0.456,4.48,1
9.07,1.27,-4.21,-0.113,4.4,1
9.09,1.85,-3.66,-1.17,4.26,1
9.1,1.77,-3.03,-0.921,3.63,1
9.12,1.53,-0.863,-0.316,1.78,1
9.14,1.96,-0.50325,0.946,6.04,1
9.16,1.23,-0.14349999999999996,1.97,5.136666666666667,1
9.18,-0.607,0.21625000000000005,-1.07,4.233333333333333,1
9.2,-2.82,0.576,-1.68,3.33,1
9.22,-2.01,0.881,-1.54,2.68,1
9.23,-1.78,1.87,-0.345,2.61,1
9.25,-1.5,-0.456,0.778,1.75,1
9.27,-0.783,-2.16,2.33,3.27,1
9.29,-0.117,-1.45,2.1,2.56,1
9.31,-0.155,0.362,0.211,0.447,1
9.33,-0.209,1.48,-2.28,2.72,1
9.34,-0.118,1.21,-2.34,2.63,1
9.36,-0.237,0.62,0.276,0.718,1
9.38,-0.184,-0.159,1.68,1.69,1
9.4,0.481,-0.484,2.6,2.69,1
9.42,2.19,-0.119,1.7,2.78,1
9.44,2.75,0.728,0.515,2.89,1
9.45,1.72,0.917,-1.08,2.23,1
9.47,1.02,0.481,-2.6,2.83,1
9.49,0.823,-0.266,-2.26,2.42,1
9.51,0.945,-0.455,-0.872,1.36,1
9.53,0.531,-0.251,0.387,0.703,1
9.55,-0.179,-0.0437,0.521,0.552,1
9.57,-0.781,0.0664,0.795,1.12,1
9.58,-0.703,0.142,0.769,1.05,1
9.6,0.148,0.459,0.237,0.537,1
9.62,0.541,1.37,0.261,1.5,1
9.64,0.233,2.16,0.278,2.19,1
9.66,0.145,2.76,-0.471,2.8,1
9.68,0.63,2.66,-0.913,2.88,1
9.69,1.6,1.67,-1.4,2.7,1
9.71,1.82,0.0808,-0.837,2.01,1
9.73,1.33,-0.519,-0.447,1.5,1
9.75,0.75,-0.239,-0.481,0.923,1
9.77,0.344,0.601,-0.46,0.831,1
9.79,0.191,1.79,-0.293,1.82,1
9.8,-0.157,2.07,0.225,2.09,1
9.82,-0.405,0.937,-0.538,1.15,1
9.84,-0.351,-0.106,-1.83,1.87,1
9.86,-0.8,-0.327,-1.82,2.01,1
9.88,-1.73,-0.246,-1.01,2.02,1
9.9,-1.08,-0.144,1.58,1.92,1
9.92,0.0951,-1.17,3.66,3.84,1
9.93,0.353,-2.89,4.34,5.23,1
9.95,-0.0757,-3.71,4.06,5.5,1
9.97,-0.497,-3.08,3.26,4.52,1
9.99,-0.693,-3.21,2.51,4.14,1
10.0,-0.847,-3.4,1.62,3.86,1
10.0,-0.828,-3.25,0.604,3.4,1
10.0,-0.51,-2.67,-0.344,2.74,1
10.1,-0.283,-1.76,-0.664,1.9,1
10.1,0.595,-1.21,-1.33,1.9,1
10.1,0.813,-1.36,-0.77,1.76,1
10.1,0.748,-1.78,0.101,1.93,1
10.1,0.885,-1.0,1.19,1.79,1
10.2,1.89,2.68,2.62,4.19,1
10.2,1.62,4.27,3.58,5.8,1
10.2,1.21,3.65,1.62,4.17,1
10.2,0.484,2.51,-0.165,2.56,1
10.2,0.915,3.54,-3.3,4.93,1
10.2,2.27,3.87,-3.59,5.75,1
10.3,1.6,0.0185,-1.44,2.15,1
10.3,0.555,-2.37,-0.533,2.49,1
10.3,0.0985,-2.75,0.163,2.75,1
10.3,0.399,-1.36,0.8,1.63,1
10.3,-0.278,-0.015,1.27,1.3,1
10.4,-1.99,-0.578,0.905,2.26,1
10.4,-2.42,-0.678,-0.411,2.55,1
10.4,-2.16,-0.45,-0.401,2.24,1
10.4,-2.18,0.0956,0.463,2.23,1
10.4,-1.21,1.49,0.831,2.09,1
10.4,-0.182,2.33,0.55,2.4,1
10.5,0.444,3.65,-1.62,4.02,1
10.5,0.398,3.67,-3.19,4.88,1
10.5,0.33,2.87,-3.08,4.23,1
10.5,0.345,0.812,-1.72,1.94,1
10.5,0.145,-0.514,-0.364,0.646,1
10.6,-0.0381,-0.598,0.47,0.761,1
10.6,-0.0877,-0.452,0.901,1.01,1
10.6,-0.0778,-0.0845,1.12,1.13,1
10.6,-0.354,0.33,0.455,0.664,1
10.6,-0.546,1.02,-0.33,1.2,1
10.7,-0.554,1.5,-0.773,1.78,1
10.7,-0.656,1.65,-1.04,2.06,1
10.7,-0.489,1.36,-1.26,1.92,1
10.7,-0.307,1.05,-1.09,1.54,1
10.7,0.137,1.13,-0.572,1.27,1
10.7,1.29,1.35,-0.404,1.91,1
10.8,2.5,2.8,0.651,3.81,1
10.8,3.52,3.22,1.94,5.15,1
10.8,3.5549999999999997,1.34,1.65,4.49,1
10.8,3.59,0.797,0.258,3.69,1
10.8,2.19,0.988,-1.89,3.06,1
10.9,-0.493,1.04,-1.67,2.02,1
10.9,-1.94,1.32,0.167,2.35,1
10.9,-1.27,-0.507,1.89,2.33,1
10.9,-0.24,-3.53,3.11,4.72,1
10.9,-0.527,-5.35,3.523333333333333,7.39,1
10.9,-2.61,-4.93,3.9366666666666665,6.975,1
11.0,-2.4,-4.28,4.35,6.56,1
11.0,-1.48,-3.94,2.75,5.03,1
11.0,-1.21,-4.04,2.46,4.88,1
11.0,-0.728,-4.17,2.05,4.7,1
11.0,0.393,-3.73,0.806,3.84,1
11.1,0.95,-3.16,-0.308,3.31,1
11.1,0.66,-2.22,-0.831,2.46,1
11.1,1.53,-0.926,-0.948,2.02,1
11.1,1.99,0.221,-0.0767,2.01,1
11.1,1.75,-0.404,-0.219,1.8,1
11.1,1.56,0.547,-0.0642,1.65,1
11.2,2.53,1.9780000000000002,1.17,6.34,1
11.2,1.5,3.4090000000000003,2.98,5.65,1
11.2,0.00969,4.84,1.11,4.96,1
11.2,-0.919,1.48,-1.49,2.29,1
11.2,-0.0721,0.35,-1.89,1.92,1
11.3,0.0213,-0.712,-1.91,2.04,1
11.3,0.367,0.493,-1.31,1.45,1
11.3,1.58,2.24,0.0154,2.74,1
11.3,1.0,0.241,0.532,1.16,1
11.3,0.129,-1.82,-0.337,1.86,1
11.4,-0.92,-1.36,-0.166,1.65,1
11.4,-2.18,-0.685,0.13,2.29,1
11.4,-3.31,0.143,0.715,3.39,1
11.4,-3.55,0.441,1.53,3.89,1
11.4,-2.52,0.108,1.58,2.98,1
11.4,-0.854,0.755,0.589,1.28,1
11.5,0.788,1.22,-0.703,1.61,1
11.5,1.1,1.74,-1.97,2.85,1
11.5,0.986,2.61,-2.4,3.68,1
11.5,0.466,1.56,-1.71,2.36,1
11.5,0.111,0.447,-1.03,1.13,1
11.6,-0.275,0.339,-0.55,0.702,1
11.6,-0.767,0.504,0.0661,0.92,1
11.6,-1.02,0.235,0.179,1.06,1
11.6,-0.814,-0.0661,0.403,0.911,1
11.6,-0.276,0.218,0.0843,0.362,1
11.6,-0.733,0.236,-0.0142,0.771,1
11.7,-1.37,1.12,0.184,1.78,1
11.7,-1.85,1.84,-0.257,2.62,1
11.7,-1.59,2.07,-1.42,2.98,1
11.7,-0.964,1.59,-2.26,2.93,1
11.7,0.213,0.906,-2.11,2.31,1
11.8,1.23,0.444,-1.74,2.17,1
11.8,2.19,1.93,-1.4,3.24,1
11.8,3.79,5.48,0.495,6.68,1
11.8,3.78,5.07,2.47,6.78,1
11.8,2.72,0.861,0.962,3.01,1
11.8,0.989,-1.69,-1.41,2.41,1
11.9,-0.133,-2.67,-1.75,3.19,1
11.9,-2.39,-2.29,-0.901,3.43,1
11.9,-1.63,0.727,2.64,3.19,1
11.9,-1.22,-0.146,4.11,4.29,1
11.9,-0.785,-2.74,3.39,4.43,1
12.0,-0.549,-4.19,3.64,5.58,1
12.0,-0.946,-3.63,3.76,5.32,1
12.0,-0.634,-3.4,3.26,4.75,1
12.0,-0.612,-3.53,2.62,4.44,1
12.0,-0.33,-3.61,1.83,4.06,1
12.1,0.224,-3.55,0.713,3.63,1
12.1,1.01,-3.16,-0.434,3.34,1
12.1,1.66,-2.65,-1.26,3.37,1
12.1,1.56,-2.07,-1.2,2.85,1
12.1,1.52,-2.42,-0.937,3.01,1
12.1,1.38,-2.17,0.128,2.57,1
12.2,1.33,1.82,1.91,2.96,1
12.2,1.77,2.34,3.4,3.3233333333333333,1
12.2,2.3,2.86,1.33,3.6866666666666665,1
12.2,1.14,3.38,-1.92,4.05,1
12.2,-0.589,0.85,-2.62,2.82,1
12.3,0.318,0.306,-2.03,2.08,1
12.3,1.4,-0.0759,-0.284,1.43,1
12.3,2.31,-0.74,1.43,2.81,1
12.3,2.29,-1.83,2.25,3.7,1
12.3,1.82,-1.69,1.6,2.96,1
12.3,0.536,-0.555,-0.224,0.803,1
12.4,-0.992,-0.324,-1.6,1.91,1
12.4,-2.21,-0.277,-1.17,2.52,1
12.4,-3.07,-0.35,0.584,3.14,1
12.4,-3.44,-0.307,2.15,4.07,1
12.4,-2.93,-0.0683,2.24,3.69,1
12.5,-1.74,0.982,1.1,2.28,1
12.5,-0.399,3.0,-0.699,3.1,1
12.5,0.268,4.26,-1.72,4.6,1
12.5,0.179,3.91,-2.57,4.68,1
12.5,0.0845,1.83,-2.25,2.91,1
12.5,0.131,0.0332,-1.51,1.51,1
12.6,0.259,-0.337,-0.629,0.759,1
12.6,0.0751,-0.394,0.482,0.627,1
12.6,-0.122,-0.42,0.481,0.65,1
12.6,-0.402,-0.15,0.307,0.528,1
12.6,-0.799,0.266,0.0804,0.846,1
12.7,-1.28,0.587,-0.379,1.45,1
12.7,-1.45,1.17,-0.357,1.9,1
12.7,-1.6,1.24,-0.107,2.03,1
12.7,-0.86,1.22,-0.215,1.51,1
12.7,-0.191,1.18,-0.0102,1.19,1
12.8,0.325,1.16,-0.0131,1.2,1
12.8,1.03,0.952,-0.199,1.42,1
12.8,2.17,1.03,0.1,2.4,1
12.8,3.14,2.44,0.712,4.04,1
12.8,3.55,2.71,0.597,4.51,1
12.8,2.92,1.81,-0.0249,3.44,1
12.9,1.7,1.41,-0.517,2.27,1
12.9,0.232,0.278,-1.16,1.22,1
12.9,-0.86,-1.22,-0.84,1.71,1
12.9,-1.12,-1.83,-0.111,2.15,1
12.9,-0.186,-2.13,0.938,2.33,1
13.0,0.339,-3.04,1.78,3.53,1
13.0,-0.558,-3.69,2.08,4.27,1
13.0,-1.01,-3.51,3.15,4.83,1
13.0,-0.904,-2.91,3.13,5.42,1
13.0,-0.344,-2.56,3.11,5.46,1
13.0,-0.269,-2.85,3.09,5.25,1
13.1,0.0931,-2.95,3.07,4.25,1
13.1,0.386,-2.7,1.19,2.98,1
13.1,0.424,-2.44,-0.406,2.51,1
13.1,0.402,-2.11,-1.61,2.68,1
13.1,0.423,-1.71,-2.15,2.78,1
13.2,0.672,-1.94,-2.77,3.45,1
13.2,0.636,-1.7,-1.52,2.37,1
13.2,1.41,2.47,0.824,2.96,1
13.2,2.73,3.16,2.64,4.234999999999999,1
13.2,2.72,3.85,2.84,5.51,1
13.2,2.55,1.14,1.0,2.96,1
13.3,0.678,0.128,-0.0204,0.69,1
13.3,0.645,3.31,-1.57,3.72,1
13.3,0.892,2.1550000000000002,-0.511,5.89,1
13.3,-0.225,1.0,-0.175,1.04,1
13.3,-0.399,-2.64,-1.72,3.18,1
13.4,-0.595,-2.38,-1.68,2.97,1
13.4,-0.136,-0.378,-0.398,0.565,1
13.4,-0.172,0.664,-0.169,0.706,1
13.4,-1.82,-1.19,0.335,2.2,1
13.4,-2.24,-2.23,0.677,3.23,1
13.5,-2.2,-1.87,1.26,3.15,1
13.5,-1.65,0.216,0.997,1.94,1
13.5,-0.169,3.33,0.0595,3.33,1
13.5,0.465,5.35,-2.13,5.77,1
13.5,0.118,4.72,-3.48,5.86,1
13.5,0.0637,2.63,-3.1,4.06,1
13.6,-0.197,0.231,-1.34,1.38,1
13.6,-0.319,-0.528,0.396,0.734,1
13.6,-0.578,-0.473,1.19,1.41,1
13.6,-0.918,-0.995,1.02,1.7,1
13.6,-0.545,-0.724,1.04,1.38,1
13.7,-0.786,-0.226,0.763,1.12,1
13.7,-0.578,0.454,-0.147,0.75,1
13.7,-0.554,0.979,-0.826,1.4,1
13.7,-0.242,1.59,-1.41,2.14,1
13.7,-0.056,1.71,-1.6,2.34,1
13.7,-0.0716,1.55,-1.14,1.92,1
13.8,-0.191,0.861,-0.856,1.23,1
13.8,0.332,0.273,-0.285,0.516,1
13.8,1.26,0.321,0.121,1.31,1
13.8,2.06,1.86,1.07,2.97,1
13.8,3.3,3.64,1.83,5.24,1
13.9,3.65,2.13,1.69,4.55,1
13.9,2.47,-0.353,0.456,2.54,1
13.9,0.589,-0.721,-1.39,1.67,1
13.9,-1.45,-0.735,-1.64,2.31,1
13.9,-2.8,-0.336,-0.295,2.84,1
13.9,-2.0,-0.303,1.51,2.53,1
14.0,-0.38,-2.19,2.37,3.25,1
14.0,0.471,-3.91,2.11,4.47,1
14.0,0.277,-4.78,2.56,5.43,1
14.0,0.355,-4.03,2.87,4.96,1
14.0,0.368,-3.61,2.73,4.54,1
14.1,0.258,-3.66,2.66,4.53,1
14.1,0.269,-3.22,2.26,3.94,1
14.1,0.413,-2.35,1.32,2.73,1
14.1,0.389,-1.53,0.275,1.6,1
14.1,0.377,-0.969,-0.882,1.36,1
14.2,0.193,-0.598,-1.67,1.79,1
14.2,0.492,-0.175,-2.23,2.29,1
14.2,1.44,2.91,-1.31,3.51,1
14.2,1.73,3.82,-0.115,4.19,1
14.2,1.81,2.27,0.859,3.03,1
14.2,1.67,3.62,0.451,4.01,1
14.3,1.55,3.305,0.084,7.43,1
14.3,-0.0294,2.99,-0.191,2.99,1
14.3,-1.0,-1.4,-1.1,2.04,1
14.3,-0.153,-2.01,-1.79,2.7,1
14.3,0.745,-2.22,-1.53,2.8,1
14.4,0.943,-1.2,-0.0138,1.53,1
14.4,0.927,0.283,0.825,1.27,1
14.4,-0.289,-0.67,1.4,1.58,1
14.4,-1.47,0.00837,0.656,1.61,1
14.4,-1.75,0.581,-0.689,1.96,1
14.4,-2.23,0.627,-0.736,2.43,1
14.5,-1.85,-0.378,-0.248,1.9,1
14.5,-0.623,-1.04,0.748,1.42,1
14.5,0.136,-0.983,1.89,2.14,1
14.5,0.39,-0.567,2.0,2.11,1
14.5,0.0654,0.049,0.447,0.454,1
14.6,-0.327,1.14,-0.988,1.55,1
14.6,0.133,1.87,-1.9,2.67,1
14.6,0.632,1.72,-1.9,2.64,1
14.6,0.248,1.21,-1.43,1.89,1
14.6,-0.537,0.812,-0.562,1.12,1
14.6,-1.23,0.777,0.319,1.49,1
14.7,-1.75,0.988,0.239,2.03,1
14.7,-1.4,0.943,0.226,1.71,1
14.7,-1.17,0.601,0.276,1.34,1
14.7,-1.3,0.924,0.227,1.61,1
14.7,-1.39,1.42,-0.187,1.99,1
14.8,-0.933,1.67,-0.971,2.15,1
14.8,-0.127,1.27,-1.4,1.9,1
14.8,0.559,0.413,-0.923,1.16,1
14.8,0.944,-0.14,-0.525,1.09,1
14.8,1.59,0.514,0.0137,1.67,1
14.9,2.79,2.52,0.37,3.78,1
14.9,2.81,3.87,1.13,5.59,1
14.9,2.83,1.59,0.867,3.36,1
14.9,0.935,-0.685,-0.787,1.4,1
14.9,-0.902,-1.18,-1.95,2.46,1
14.9,-1.66,-0.945,-1.53,2.45,1
15.0,-2.76,0.279,0.32,2.79,1
15.0,-0.867,-1.02,1.5,2.01,1
15.0,0.107,-1.33,2.26,2.63,1
15.0,0.768,-3.21,3.12,4.54,1
15.0,0.353,-4.07,3.71,5.52,1
15.1,0.577,-3.61,3.58,5.12,1
15.1,0.557,-3.82,3.12,4.96,1
15.1,0.482,-3.67,2.37,4.4,1
15.1,0.889,-3.45,1.06,3.72,1
15.1,0.789,-2.99,-0.107,3.1,1
15.1,0.912,-2.73,-0.905,3.02,1
15.2,0.969,-2.8,-1.42,3.29,1
15.2,0.688,-2.36,-1.62,2.94,1
15.2,0.801,-0.389,-1.37,1.63,1
15.2,2.03,5.56,-1.17,6.03,1
15.2,2.09,4.465,1.25,6.49,1
15.3,1.21,3.37,2.34,4.28,1
15.3,-0.571,0.771,1.94,2.16,1
15.3,-0.717,0.866,0.735,1.34,1
15.3,0.38,3.61,-0.611,3.68,1
15.3,0.571,3.57,-1.25,3.82,1
15.3,0.489,-0.604,-1.77,1.93,1
15.4,-0.0484,-1.86,-1.39,2.32,1
15.4,0.453,-1.03,-0.554,1.25,1
15.4,1.03,0.201,-0.207,1.07,1
15.4,0.0503,-0.166,-0.0296,0.176,1
15.4,-1.0,-0.732,0.145,1.25,1
15.5,-1.91,-0.55,-0.246,2.01,1
15.5,-2.34,0.0662,0.574,2.41,1
15.5,-2.0,0.941,0.69,2.32,1
15.5,-1.34,1.07,0.382,1.75,1
15.5,-0.53,0.559,-0.231,0.804,1
15.5,0.357,0.61,-0.697,0.993,1
15.6,0.587,1.14,-0.707,1.46,1
15.6,0.436,1.13,-1.15,1.67,1
15.6,0.184,0.546,-1.17,1.3,1
15.6,-0.178,0.2,-0.865,0.906,1
15.6,-0.315,0.37,-0.489,0.69,1
15.7,-0.352,0.554,-0.186,0.682,1
15.7,-0.381,0.324,-0.178,0.531,1
15.7,-0.541,0.292,-0.151,0.633,1
15.7,-0.836,0.732,-0.0257,1.11,1
15.7,-0.834,1.12,-0.174,1.41,1
15.8,-0.65,1.14,-0.704,1.49,1
15.8,-0.225,1.12,-1.1,1.58,1
15.8,-0.0284,0.814,-0.961,1.26,1
15.8,0.219,0.364,-0.254,0.495,1
15.8,0.537,0.649,0.198,0.866,1
15.8,1.28,2.86,0.789,3.23,1
15.9,2.5,4.56,1.42,5.39,1
15.9,3.83,2.46,1.07,4.68,1
15.9,2.6,-0.568,0.421,2.69,1
15.9,1.29,-0.439,-1.04,1.71,1
15.9,-0.732,0.377,-1.15,1.41,1
16.0,-2.28,0.612,-0.584,2.43,1
16.0,-1.69,-0.0773,0.331,1.72,1
16.0,-0.728,-1.68,1.51,2.37,1
16.0,0.642,-3.54,1.36,3.85,1
16.0,0.857,-5.35,1.97,5.77,1
16.0,-0.278,-4.64,3.03,5.55,1
16.1,-0.199,-3.45,3.67,5.04,1
16.1,-0.33,-3.32,3.91,5.14,1
16.1,-0.561,-3.16,3.23,4.56,1
16.1,-0.467,-2.86,1.73,3.38,1
16.1,0.00619,-2.52,0.115,2.52,1
16.2,0.385,-2.19,-1.31,2.58,1
16.2,0.933,-2.15,-2.3,3.28,1
16.2,1.45,-1.88,-2.69,3.59,1
16.2,1.68,0.0771,-1.37,2.17,1
16.2,1.88,5.26,1.12,5.7,1
16.2,1.44,3.7649999999999997,2.66,6.53,1
16.3,0.655,2.27,1.38,2.74,1
16.3,-0.159,1.12,0.0221,1.13,1
16.3,0.178,4.16,-0.984,4.28,1
16.3,-0.0228,4.08,-0.243,4.09,1
16.3,-0.244,-1.14,-0.285,1.2,1
16.4,-0.194,-2.53,-1.14,2.78,1
16.4,0.0248,-0.668,-1.56,1.69,1
16.4,0.924,1.36,-1.13,1.99,1
16.4,0.546,0.461,-0.793,1.07,1
16.4,-0.0473,-0.592,-0.499,0.775,1
16.5,-0.733,-0.731,0.0772,1.04,1
16.5,-1.26,-0.187,1.18,1.73,1
16.5,-1.55,-0.00883,0.999,1.84,1
16.5,-1.57,-0.139,0.763,1.75,1
16.5,-1.12,0.0258,0.78,1.36,1
16.5,-0.272,0.512,0.53,0.785,1
16.6,0.389,0.546,0.532,0.856,1
16.6,0.443,0.659,0.177,0.814,1
16.6,0.319,0.846,-0.236,0.935,1
16.6,0.587,0.821,-1.11,1.5,1
16.6,0.598,0.592,-1.34,1.58,1
16.7,0.124,0.336,-1.09,1.15,1
16.7,-0.197,0.312,-0.444,0.578,1
16.7,-0.236,0.328,-0.134,0.426,1
16.7,-0.198,0.208,0.13,0.316,1
16.7,-0.331,0.528,0.373,0.726,1
16.7,-0.675,1.01,0.219,1.23,1
16.8,-0.853,1.16,-0.0984,1.45,1
16.8,-0.747,1.16,-0.37,1.43,1
16.8,-0.526,1.11,-0.454,1.31,1
16.8,-0.266,0.709,-0.383,0.849,1
16.8,0.283,0.205,0.173,0.39,1
16.9,0.811,0.468,0.487,1.06,1
16.9,1.5,1.3,0.541,2.05,1
16.9,2.44,2.47,0.744,3.55,1
16.9,3.16,2.32,1.02,4.05,1
16.9,2.8,0.23,0.256,2.82,1
16.9,1.15,-0.296,-0.975,1.54,1
17.0,-1.0,0.255,-1.54,1.85,1
17.0,-2.32,0.153,-1.58,2.81,1
17.0,-2.14,-0.297,-0.537,2.23,1
17.0,-0.105,-1.6,0.859,1.82,1
17.0,1.35,-3.93,1.59,4.45,1
17.1,0.904,-5.24,2.6,5.92,1
17.1,0.476,-4.01,3.49,5.33,1
17.1,0.152,-3.11,3.75,4.88,1
17.1,-0.178,-2.92,3.57,4.62,1
17.1,-0.0203,-2.59,2.64,3.7,1
17.2,0.399,-2.12,1.16,2.45,1
17.2,0.785,-1.86,-0.18,2.03,1
17.2,0.992,-1.99,-1.25,2.55,1
17.2,1.16,-2.07,-2.02,3.11,1
17.2,1.56,-0.65,-2.59,3.09,1
17.2,2.32,4.51,-1.58,5.31,1
17.3,1.63,3.985,0.631,6.51,1
17.3,0.821,3.46,0.886,3.67,1
17.3,-0.0494,0.0236,0.328,0.333,1
17.3,-0.0633,1.09,-0.373,1.15,1
17.3,0.167,3.71,0.664,3.77,1
17.4,-0.409,0.924,1.33,1.67,1
17.4,-0.66,-1.75,0.188,1.88,1
17.4,-0.63,-2.02,-1.74,2.75,1
17.4,-0.84,-0.018,-1.85,2.03,1
17.4,-1.64,1.53,0.479,2.3,1
17.4,-2.53,0.305,1.3,2.87,1
17.5,-3.04,-0.681,0.343,3.14,1
17.5,-2.47,-0.0466,-0.503,2.53,1
17.5,-1.49,0.468,0.0429,1.56,1
17.5,-0.347,0.478,-0.0419,0.592,1
17.5,0.95,-0.087,-0.433,1.05,1
17.6,2.16,-0.346,1.02,2.41,1
17.6,2.31,-0.477,0.876,2.52,1
17.6,1.45,0.959,0.304,1.77,1
17.6,0.465,2.09,-1.38,2.55,1
17.6,0.143,1.24,-2.56,2.85,1
17.6,0.103,0.76,-2.34,2.46,1
17.7,-0.0353,0.85,-0.99,1.31,1
17.7,-0.504,0.655,0.941,1.25,1
17.7,-1.1,0.283,1.22,1.66,1
17.7,-1.83,0.101,0.585,1.93,1
17.7,-1.84,0.329,-0.0218,1.87,1
17.8,-1.67,0.724,-0.471,1.88,1
17.8,-1.56,1.04,-0.465,1.94,1
17.8,-1.29,1.6,-0.453,2.11,1
17.8,-0.884,2.22,-0.772,2.51,1
17.8,0.0345,2.89,-1.02,3.07,1
17.9,1.02,1.36,-1.1,2.03,1
17.9,1.6,-0.666,-0.42,1.79,1
17.9,1.75,-0.819,0.612,2.03,1
17.9,2.15,0.473,1.54,2.69,1
17.9,2.06,1.4,1.72,3.03,1
17.9,1.66,0.701,0.613,1.91,1
18.0,1.19,0.506,-1.7,2.14,1
18.0,-0.246,0.882,-4.03,4.13,1
18.0,-2.01,0.87,-3.87,4.44,1
18.0,-1.96,0.0473,-0.448,2.01,1
18.0,-0.33,-1.09,2.82,3.04,1
18.1,1.29,-2.22,2.8899999999999997,5.71,1
18.1,1.23,-3.04,2.96,6.57,1
18.1,0.666,-3.2,3.0300000000000002,5.66,1
18.1,0.242,-3.48,3.1,4.67,1
18.1,-0.0523,-3.64,1.91,4.11,1
18.1,-0.151,-3.46,0.939,3.59,1
18.2,0.00177,-3.1,0.0322,3.1,1
18.2,0.382,-2.89,-0.834,3.04,1
18.2,0.717,-2.86,-1.51,3.31,1
18.2,1.06,-2.77,-1.96,3.55,1
18.2,1.29,-1.9,-1.2,2.59,1
18.3,1.58,0.68,1.36,2.19,1
18.3,2.39,3.0600000000000005,2.06,6.62,1
18.3,2.01,5.44,2.705,7.3,1
18.3,0.179,1.69,3.35,3.75,1
18.3,-1.71,0.261,1.08,2.04,1
18.3,-0.644,1.32,-1.74,2.28,1
18.4,1.46,1.0,-3.03,3.51,1
18.4,2.41,3.38,-0.849,4.24,1
18.4,0.849,3.38,1.11,3.66,1
18.4,-0.211,-1.19,-0.455,1.29,1
18.4,0.208,-2.14,-1.03,2.38,1
18.5,0.809,-1.55,-0.659,1.87,1
18.5,0.108,-0.671,-0.272,0.732,1
18.5,-0.769,-0.328,-0.0785,0.84,1
18.5,-0.963,-0.804,0.818,1.5,1
18.5,-0.842,-0.501,1.14,1.51,1
18.6,-1.01,0.71,0.156,1.25,1
18.6,-1.04,1.41,-1.58,2.36,1
18.6,-0.528,1.1,-1.71,2.1,1
18.6,0.251,0.96,-1.59,1.88,1
18.6,0.438,1.82,-1.16,2.2,1
18.6,0.295,2.03,-0.881,2.23,1
18.7,-0.0212,1.44,-0.983,1.75,1
18.7,-0.00973,0.982,-1.33,1.65,1
18.7,0.116,0.397,-1.23,1.3,1
18.7,0.00829,-0.0753,-0.471,0.477,1
18.7,0.0361,-0.282,0.758,0.81,1
18.8,-0.244,-0.451,0.865,1.01,1
18.8,-0.762,-0.0486,0.585,0.962,1
18.8,-1.12,0.517,0.0788,1.23,1
18.8,-1.12,0.836,-0.619,1.53,1
18.8,-0.914,1.28,-1.34,2.07,1
18.8,-0.416,2.32,-1.86,3.0,1
18.9,0.2,3.03,-2.18,3.73,1
18.9,1.21,2.09,-1.42,2.8,1
18.9,1.91,0.443,-0.901,2.16,1
18.9,1.85,-0.183,-0.435,1.91,1
18.9,2.31,0.428,-0.19,2.36,1
19.0,3.44,2.81,0.178,4.44,1
19.0,3.335,4.54,1.44,6.43,1
19.0,3.23,-0.254,1.55,3.59,1
19.0,0.809,-3.66,-0.234,3.76,1
19.0,-1.67,-1.95,-0.899,2.72,1
19.0,-2.96,0.846,-0.203,3.09,1
19.1,-3.0,2.23,1.61,4.07,1
19.1,-1.56,0.0263,3.4,3.74,1
19.1,0.162,-3.42,3.4433333333333334,5.75,1
19.1,0.628,-5.26,3.4866666666666664,7.01,1
19.1,0.0064,-4.17,3.53,5.46,1
19.2,-0.224,-3.93,1.95,4.4,1
19.2,-0.261,-3.99,1.08,4.14,1
19.2,0.189,-3.57,0.559,3.62,1
19.2,0.744,-2.74,0.0155,2.84,1
19.2,0.956,-1.92,-0.512,2.2,1
19.3,0.999,-1.54,-0.955,2.07,1
19.3,1.0,-1.57,-1.34,2.29,1
19.3,1.17,-0.253,-1.5,1.92,1
19.3,1.81,4.73,0.0177,5.07,1
19.3,1.32,5.41,0.975,5.65,1
19.3,0.0976,2.12,0.833,2.28,1
19.4,-0.599,0.41,0.424,0.841,1
19.4,0.697,3.81,-0.166,3.88,1
19.4,0.591,4.56,0.942,4.69,1
19.4,0.119,-1.23,0.0537,1.24,1
19.4,0.446,-3.03,-1.5,3.41,1
19.5,0.452,-2.18,-1.22,2.54,1
19.5,-0.454,-0.317,0.243,0.604,1
19.5,-1.37,1.34,1.5,2.43,1
19.5,-3.15,-0.288,1.48,3.49,1
19.5,-2.81,-1.32,0.312,3.12,1
19.5,-1.97,-1.07,0.41,2.28,1
19.6,-1.45,0.183,0.552,1.56,1
19.6,-0.165,2.36,0.27,2.38,1
19.6,1.49,3.19,-0.0856,3.52,1
19.6,2.21,3.45,-1.92,4.52,1
19.6,1.62,3.11,-3.2,4.75,1
19.7,0.858,1.67,-4.17,4.57,1
19.7,0.0413,-0.231,-2.42,2.44,1
19.7,-0.529,-1.1,-0.208,1.24,1
19.7,-0.971,-1.02,1.55,2.09,1
19.7,-1.22,-0.57,2.65,2.97,1
19.7,-1.54,-0.156,2.07,2.59,1
19.8,-2.12,-0.241,0.871,2.31,1
19.8,-1.83,0.316,0.00715,1.86,1
19.8,-1.28,0.808,-0.498,1.59,1
19.8,-0.409,1.78,-1.17,2.17,1
19.8,0.53,2.54,-1.88,3.2,1
19.9,1.18,1.95,-2.28,3.22,1
19.9,1.17,-0.0436,-2.14,2.44,1
19.9,0.304,-1.16,-1.16,1.67,1
19.9,0.388,-0.729,0.176,0.845,1
19.9,1.44,0.895,0.675,1.82,1
20.0,3.28,3.87,0.96,5.17,1
20.0,3.0549999999999997,4.09,1.32,6.12,1
20.0,2.83,-0.0194,0.136,2.83,1
20.0,-0.0244,-2.53,-1.5,2.94,1
20.0,-1.61,-1.72,-0.681,2.45,1
20.0,-2.15,-0.0332,1.24,2.48,1
20.1,-2.33,0.892,2.51,3.54,1
20.1,-1.06,-0.44,2.22,2.5,1
20.1,0.12,-2.56,1.43,2.93,1
20.1,0.291,-4.08,1.08,4.23,1
20.1,-0.104,-3.57,0.968,3.7,1
20.2,-0.0276,-2.92,1.06,3.11,1
20.2,0.0456,-2.41,1.42,2.79,1
20.2,0.312,-1.83,1.42,2.34,1
20.2,0.707,-1.46,0.698,1.77,1
20.2,0.988,-1.45,-0.2,1.76,1
20.2,0.985,-1.64,-1.08,2.2,1
20.3,0.832,-1.85,-1.65,2.61,1
20.3,0.756,-1.9,-1.28,2.41,1
20.3,0.871,-0.472,-0.635,1.18,1
20.3,0.872,2.46,1.14,2.85,1
20.3,0.606,3.24,3.66,4.92,1
20.4,-0.0199,1.73,3.88,4.25,1
20.4,-0.647,-0.0387,1.99,2.09,1
20.4,0.0796,1.25,-0.827,1.5,1
20.4,1.75,5.52,-1.78,6.06,1
20.4,0.585,2.9,-0.354,2.98,1
20.4,0.0641,-1.7,-1.82,2.49,1
20.5,0.95,-2.21,-2.48,3.46,1
20.5,1.89,-0.564,-0.986,2.21,1
20.5,1.15,0.0924,-0.271,1.18,1
20.5,0.071,0.523,-0.471,0.708,1
20.5,-1.42,0.0969,0.164,1.44,1
20.6,-2.36,-0.0151,0.725,2.47,1
20.6,-2.45,0.193,1.54,2.91,1
20.6,-2.05,0.371,1.53,2.59,1
20.6,-0.404,0.458,-0.44,0.753,1
20.6,0.233,0.652,-0.645,0.946,1
20.7,0.199,0.822,-0.171,0.863,1
20.7,0.411,0.595,-0.606,0.944,1
20.7,0.853,0.273,-1.1,1.42,1
20.7,0.669,0.0812,-1.05,1.25,1
20.7,-0.116,-0.149,-0.325,0.375,1
20.7,-0.812,-0.236,0.23,0.877,1
20.8,-0.724,-0.253,0.132,0.779,1
20.8,-0.321,-0.286,0.103,0.443,1
20.8,-0.127,0.564,0.333,0.668,1
20.8,-0.228,1.49,0.416,1.56,1
20.8,-0.564,2.04,-0.374,2.15,1
20.9,-0.472,2.87,-1.76,3.4,1
20.9,-0.314,3.17,-2.66,4.15,1
20.9,-0.0275,1.77,-2.31,2.91,1
20.9,0.694,0.111,-1.76,1.9,1
20.9,1.05,-0.761,-0.562,1.41,1
20.9,1.61,-0.17,0.441,1.67,1
21.0,2.54,2.26,1.14,3.59,1
21.0,3.08,4.17,2.0,6.14,1
21.0,3.62,0.669,1.53,3.99,1
21.0,1.68,-2.55,-0.774,3.15,1
21.0,-0.187,-2.22,-2.08,3.05,1
21.1,-1.75,-0.856,-0.534,2.02,1
21.1,-2.03,0.717,1.08,2.41,1
21.1,-1.32,0.652,2.74,3.11,1
21.1,-0.552,-1.93,2.93,3.55,1
21.1,-0.592,-3.7,3.21,4.94,1
21.1,-0.826,-3.64,2.48,4.49,1
21.2,-1.4,-3.23,1.4,3.79,1
21.2,-1.35,-3.2,0.668,3.54,1
21.2,-0.838,-3.07,0.207,3.18,1
21.2,-0.173,-2.7,0.0622,2.7,1
21.2,0.719,-2.15,-0.203,2.27,1
21.3,1.4,-2.06,-0.573,2.56,1
21.3,1.91,-2.58,-0.838,3.32,1
21.3,2.75,-2.3,-0.59,3.63,1
21.3,2.91,0.476,0.64,3.01,1
21.3,1.44,4.43,3.4,5.77,1
21.4,-0.316,5.49,2.41,7.05,1
21.4,-1.94,1.68,1.42,2.93,1
21.4,-1.39,1.3,-1.84,2.64,1
21.4,-0.16,4.72,-1.52,4.96,1
21.4,0.0527,2.16,-0.777,2.29,1
21.4,0.676,-2.56,-0.674,2.73,1
21.5,1.93,-3.85,-0.353,4.33,1
21.5,2.95,-2.8,0.298,4.07,1
21.5,2.02,-1.31,0.354,2.43,1
21.5,0.182,-0.573,0.222,0.641,1
21.5,-1.13,-0.0113,0.536,1.25,1
21.6,-1.9,1.82,0.862,2.77,1
21.6,-2.48,4.68,0.615,5.33,1
21.6,-1.68,5.5,-2.84,6.41,1
21.6,-1.18,4.43,-3.88,6.0,1
21.6,-0.976,2.57,-2.24,3.54,1
21.6,0.232,0.922,-1.02,1.39,1
21.7,0.541,-0.597,0.476,0.936,1
21.7,0.375,-1.56,1.44,2.15,1
21.7,-0.32,-1.57,0.666,1.73,1
21.7,-1.29,-0.754,0.232,1.52,1
21.7,-1.92,0.137,0.216,1.94,1
21.8,-2.2,0.373,0.503,2.28,1
21.8,-1.76,0.282,0.0505,1.79,1
21.8,-1.19,0.35,-0.457,1.32,1
21.8,-0.912,0.97,-0.293,1.36,1
21.8,-0.913,1.62,-0.644,1.97,1
21.8,-0.578,2.22,-0.991,2.5,1
21.9,-0.223,1.94,-1.13,2.26,1
21.9,0.126,0.941,-1.33,1.64,1
21.9,0.653,0.596,-0.849,1.23,1
21.9,1.15,1.8,-0.11,2.14,1
21.9,1.68,3.54,0.834,4.01,1
22.0,2.43,3.56,1.44,4.54,1
22.0,2.46,1.12,0.846,2.84,1
22.0,1.36,-0.229,0.0872,1.38,1
22.0,-0.058,-1.5,-0.0685,1.5,1
22.0,-1.35,-2.12,0.33,2.54,1
22.1,-0.925,-1.77,0.819,2.16,1
22.1,0.323,-2.36,1.31,2.72,1
22.1,-0.198,-3.71,1.74,4.1,1
22.1,-0.287,-4.12,2.83,5.01,1
22.1,-0.163,-3.71,3.62,5.18,1
22.1,-0.275,-2.82,3.76,4.7,1
22.2,-0.213,-2.46,3.77,4.51,1
22.2,-0.164,-2.58,2.95,3.92,1
22.2,0.174,-2.65,1.25,2.94,1
22.2,0.767,-2.44,-0.433,2.59,1
22.2,1.08,-2.13,-1.42,2.78,1
22.3,1.32,-1.9,-2.27,3.24,1
22.3,1.54,-2.07,-2.91,3.89,1
22.3,1.54,0.0058,-2.21,2.69,1
22.3,2.61,0.7872000000000001,-1.17,6.88,1
22.3,2.24,1.5686000000000002,1.03,6.84,1
22.3,0.881,2.35,1.95,3.18,1
22.4,-0.0213,0.149,2.31,2.31,1
22.4,-0.255,1.37,1.22,1.86,1
22.4,0.364,3.8,0.492,3.84,1
22.4,0.211,0.821,-0.274,0.891,1
22.4,0.0103,-2.28,-0.617,2.36,1
22.5,-0.384,-2.41,-0.292,2.46,1
22.5,-0.248,0.267,0.254,0.444,1
22.5,-0.0705,1.78,0.564,1.87,1
22.5,-0.542,-0.59,-0.875,1.19,1
22.5,-0.213,-0.929,-1.32,1.63,1
22.5,-0.248,-0.445,-0.159,0.533,1
22.6,-0.327,-0.235,0.867,0.955,1
22.6,-0.178,0.115,1.19,1.21,1
22.6,0.00527,0.967,0.868,1.3,1
22.6,-0.204,1.23,-0.256,1.28,1
22.6,-0.377,1.36,-1.38,1.98,1
22.7,-0.394,1.49,-1.12,1.9,1
22.7,-0.407,1.22,-0.604,1.42,1
22.7,-0.454,0.448,0.0816,0.643,1
22.7,-0.338,0.144,0.243,0.441,1
22.7,-0.162,0.0714,0.043,0.182,1
22.8,-0.0504,0.338,-0.473,0.583,1
22.8,0.0921,0.531,-0.681,0.869,1
22.8,-0.218,0.0474,-0.157,0.272,1
22.8,-0.751,-0.179,0.304,0.83,1
22.8,-0.96,-0.18,0.652,1.17,1
22.8,-0.982,0.157,0.663,1.2,1
22.9,-0.992,0.728,0.314,1.27,1
22.9,-0.934,1.12,-0.449,1.53,1
22.9,-0.565,1.44,-0.949,1.81,1
22.9,-0.0776,1.15,-0.991,1.52,1
22.9,0.532,1.14,-0.604,1.39,1
23.0,1.09,1.12,-0.0345,1.57,1
23.0,1.61,0.951,0.179,1.87,1
23.0,2.1,1.96,0.569,2.93,1
23.0,2.73,2.87,1.03,4.09,1
23.0,2.87,1.54,0.866,3.37,1
23.0,2.46,0.319,0.00612,2.48,1
23.1,1.45,0.0809,-0.984,1.75,1
23.1,-0.269,0.319,-0.418,0.59,1
23.1,-1.03,0.191,0.139,1.06,1
23.1,-0.805,-0.00576,0.698,1.06,1
23.1,0.242,-1.0,0.972,1.42,1
23.2,0.527,-2.98,1.29,3.29,1
23.2,-0.0806,-4.19,1.72,4.52,1
23.2,-0.774,-3.82,2.07,4.41,1
23.2,-0.432,-2.81,2.44,3.74,1
23.2,-0.284,-2.56,2.81,3.81,1
23.2,-0.17,-2.47,2.87,3.79,1
23.3,0.158,-2.49,2.24,3.35,1
23.3,0.566,-2.42,1.17,2.75,1
23.3,1.02,-2.41,0.131,2.63,1
23.3,1.41,-2.47,-0.801,2.95,1
23.3,1.48,-2.49,-1.6,3.31,1
23.4,1.17,-2.18,-1.74,3.02,1
23.4,0.524,-1.22,-1.51,2.01,1
23.4,0.317,0.328,0.373,0.589,1
23.4,0.386,3.63,2.51,4.43,1
23.4,-0.481,5.18,2.95,5.98,1
23.4,-0.392,5.48,2.3,5.96,1
23.5,1.2,3.21,-1.14,3.61,1
23.5,0.607,1.25,-2.8,3.13,1
23.5,0.296,1.76,-2.05,2.72,1
23.5,0.0271,1.12,0.414,1.19,1
23.5,0.226,-1.71,0.592,1.82,1
23.6,0.654,-3.13,0.061,3.2,1
23.6,1.38,-1.77,-0.415,2.28,1
23.6,1.24,0.605,-0.72,1.56,1
23.6,-0.472,0.614,-0.338,0.845,1
23.6,-1.24,0.00874,-0.731,1.44,1
23.7,-1.62,-0.146,-0.655,1.75,1
23.7,-1.73,0.0707,0.816,1.91,1
23.7,-1.27,0.382,2.38,2.73,1
23.7,-0.753,0.802,1.25,1.66,1
23.7,-0.0832,2.07,-1.01,2.3,1
23.7,0.259,2.62,-2.25,3.46,1
23.8,0.466,1.91,-2.59,3.25,1
23.8,0.244,0.355,-1.86,1.91,1
23.8,-0.146,-0.285,-0.5,0.593,1
23.8,-0.518,-0.0973,0.796,0.955,1
23.8,-0.647,-0.0029,0.602,0.883,1
23.9,-0.372,-0.187,0.0463,0.419,1
23.9,-0.34,0.308,-0.479,0.663,1
23.9,-0.608,0.908,-0.577,1.24,1
23.9,-0.796,1.37,-0.65,1.71,1
23.9,-0.942,1.86,-0.875,2.26,1
23.9,-0.505,2.37,-1.55,2.87,1
24.0,-0.364,2.14,-1.3,2.53,1
24.0,0.276,1.01,-0.812,1.32,1
24.0,0.805,0.154,-0.153,0.834,1
24.0,1.18,0.634,1.16,1.77,1
24.0,2.36,2.52,1.82,3.9,1
24.1,2.6599999999999997,3.63,2.09,5.76,1
24.1,2.96,0.945,1.43,5.16,1
24.1,3.26,-1.86,0.385,3.78,1
24.1,0.803,-1.31,-2.04,2.55,1
24.1,-2.63,-0.332,-2.5,3.64,1
24.1,-2.28,1.26,-1.21,4.28,1
24.2,-1.93,0.392,0.0575,1.97,1
24.2,-0.901,-2.94,2.02,3.68,1
24.2,-1.43,-5.0,3.76,6.42,1
24.2,-1.94,-5.04,3.7,6.98,1
24.2,-1.46,-3.85,3.64,5.5,1
24.3,-1.26,-3.23,3.36,4.83,1
24.3,-0.411,-2.91,2.79,4.05,1
24.3,0.272,-2.69,1.69,3.19,1
24.3,0.709,-2.55,0.504,2.7,1
24.3,1.1,-2.27,-0.355,2.54,1
24.4,2.1,-2.65,-1.54,3.72,1
24.4,2.35,-3.67,-2.08,4.83,1
24.4,2.37,-2.63,-2.31,4.23,1
24.4,1.9,1.67,-1.68,3.04,1
24.4,1.65,3.42,0.89,5.93,1
24.4,2.31,5.17,1.54,5.86,1
24.5,2.71,2.91,-1.74,4.34,1
24.5,3.38,1.4933333333333334,-1.95,5.99,1
24.5,2.64,0.07666666666666666,-1.77,7.64,1
24.5,-1.07,-1.34,-2.8,3.28,1
24.5,-1.94,-2.38,-0.56,3.12,1
24.6,-1.83,-1.05,1.2,2.43,1
24.6,-1.24,-0.275,2.33,2.65,1
24.6,-1.06,0.725,2.1,2.46,1
24.6,-1.14,-0.0315,1.37,1.78,1
24.6,-1.66,-1.74,0.335,2.42,1
24.6,-2.28,-1.8,0.842,3.03,1
24.7,-2.17,-0.846,0.684,2.42,1
24.7,-1.01,-0.0567,0.0742,1.01,1
24.7,0.73,-0.0869,-0.0707,0.739,1
24.7,1.46,0.198,0.803,1.68,1
24.7,1.41,0.989,1.27,2.14,1
24.8,0.803,2.32,-0.158,2.46,1
24.8,0.123,3.04,-2.15,3.73,1
24.8,-0.709,2.23,-2.32,3.29,1
24.8,-1.24,0.78,-0.967,1.76,1
24.8,-1.23,-0.0257,0.328,1.28,1
24.8,-1.18,-0.486,1.01,1.63,1
24.9,-1.25,-0.693,0.928,1.7,1
24.9,-1.18,-0.732,0.497,1.48,1
24.9,-0.872,-0.665,-0.185,1.11,1
24.9,-0.622,-0.63,-0.31,0.938,1
24.9,-0.467,-0.652,-0.403,0.897,1
25.0,-0.632,-0.51,-0.245,0.848,1
25.0,-1.06,0.0902,0.246,1.09,1
25.0,-1.38,0.413,0.794,1.65,1
25.0,-1.53,0.647,0.714,1.81,1
25.0,-1.09,1.08,0.486,1.61,1
25.1,-0.713,1.29,0.826,1.69,1
25.1,-0.297,0.71,1.17,1.4,1
25.1,-0.302,-0.253,1.1,1.17,1
25.1,-0.0468,-0.829,0.3,0.883,1
25.1,0.406,-0.256,-0.773,0.909,1
25.1,0.625,0.376,-1.05,1.28,1
25.2,0.5,0.446,-0.764,1.02,1
25.2,0.214,0.394,-0.675,0.811,1
25.2,0.0846,0.588,-0.326,0.678,1
25.2,0.421,0.899,0.217,1.02,1
25.2,0.712,0.88,0.849,1.42,1
25.3,1.29,0.626,0.523,1.52,1
25.3,1.96,1.58,0.692,2.62,1
25.3,2.93,3.36,0.773,4.52,1
25.3,3.73,2.84,-0.0879,4.69,1
25.3,3.08,0.75,-1.48,3.5,1
25.3,0.126,-0.251,-1.9,1.92,1
25.4,-1.05,-0.694,-3.49,3.71,1
25.4,0.402,-0.862,-2.53,2.71,1
25.4,0.925,-3.5,1.0,3.75,1
25.4,-0.409,-4.1433333333333335,3.35,7.61,1
25.4,-0.102,-4.786666666666666,3.34,7.375,1
25.5,0.759,-5.43,3.6733333333333333,7.14,1
25.5,0.11,-4.22,4.006666666666667,6.86,1
25.5,0.458,-2.51,4.34,5.04,1
25.5,1.89,-0.851,2.5,3.25,1
25.5,3.24,-0.208,-1.68,3.65,1
25.5,2.5733333333333337,3.55,-2.495,5.615,1
25.6,1.906666666666667,5.19,-3.31,7.58,1
25.6,1.24,3.05,-0.894,3.41,1
25.6,0.317,0.749,-0.843,1.17,1
25.6,-0.37,-0.912,0.371,1.05,1
25.6,0.446,1.18,0.881,1.54,1
25.7,-0.626,5.07,2.38,5.63,1
25.7,-2.68,1.74,0.789,3.29,1
25.7,-3.01,-1.28,-1.07,3.45,1
25.7,-2.24,-0.777,-0.52,2.43,1
25.7,-1.57,0.636,0.138,1.7,1
25.8,-1.26,1.25,0.538,1.86,1
25.8,-0.749,0.321,0.416,0.915,1
25.8,-0.0472,-0.519,-0.123,0.535,1
25.8,0.68,-0.354,-0.321,0.831,1
25.8,0.702,0.129,-0.186,0.738,1
25.8,0.42,0.17,-0.139,0.474,1
25.9,0.305,-0.0273,0.208,0.371,1
25.9,0.237,-0.181,0.387,0.489,1
25.9,0.0421,0.0374,0.542,0.544,1
25.9,-0.266,0.26,-0.184,0.415,1
25.9,-0.206,0.215,-0.971,1.02,1
26.0,0.0733,-0.0662,-1.09,1.09,1
26.0,0.118,-0.135,-0.272,0.326,1
26.0,-0.379,-0.0525,0.686,0.785,1
26.0,-0.88,0.0507,1.07,1.38,1
26.0,-1.09,0.222,0.484,1.21,1
26.0,-1.02,0.256,-0.109,1.05,1
26.1,-0.947,0.398,-0.0063,1.03,1
26.1,-1.12,0.666,0.48,1.39,1
26.1,-1.24,0.871,0.452,1.58,1
26.1,-1.15,1.12,0.466,1.67,1
26.1,-0.938,1.11,0.0239,1.46,1
26.2,-0.0688,1.11,-0.287,1.15,1
26.2,1.23,0.765,-0.317,1.49,1
26.2,1.08,-0.0611,0.0342,1.08,1
26.2,0.669,-0.508,0.292,0.89,1
26.2,1.03,0.252,-0.0547,1.06,1
26.2,1.18,2.04,-0.337,2.38,1
26.3,0.699,3.02,-0.452,3.14,1
26.3,0.208,1.81,-1.18,2.17,1
26.3,0.622,0.281,-1.81,1.93,1
26.3,1.38,-0.219,-1.68,2.19,1
26.3,1.41,-0.316,-0.399,1.5,1
26.4,0.487,-0.759,1.03,1.37,1
26.4,0.304,-1.27,1.54,2.02,1
26.4,0.28,-1.92,1.67,2.57,1
26.4,-0.0398,-2.54,1.15,2.79,1
26.4,-0.86,-2.36,0.98,2.69,1
26.5,-0.625,-1.68,1.3,2.21,1
26.5,0.0579,-1.83,1.85,2.6,1
26.5,0.284,-2.23,2.01,3.02,1
26.5,0.461,-2.68,1.51,3.11,1
26.5,0.676,-2.74,0.583,2.88,1
26.5,1.11,-2.6,-0.456,2.87,1
26.6,1.69,-2.36,-1.1,3.1,1
26.6,1.98,-1.94,-0.88,2.91,1
26.6,1.91,-1.57,-0.0825,2.47,1
26.6,1.78,-1.28,0.789,2.33,1
26.6,1.65,-0.653,1.25,2.18,1
26.7,2.1,3.06,1.03,3.85,1
26.7,1.97,5.52,1.04,5.95,1
26.7,0.665,3.77,-0.105,3.83,1
26.7,-0.998,1.68,-1.27,2.33,1
26.7,-0.596,1.52,-2.96,3.38,1
26.7,0.747,2.25,-2.54,3.47,1
26.8,1.7,2.5,-0.246,3.03,1
26.8,0.926,0.157,1.22,1.54,1
26.8,-0.469,-1.88,0.513,2.0,1
26.8,-0.847,-1.67,0.176,1.88,1
26.8,-0.812,-0.553,0.516,1.11,1
26.9,-1.23,0.369,0.553,1.4,1
26.9,-1.49,0.318,-0.24,1.54,1
26.9,-0.722,0.116,-0.584,0.936,1
26.9,-0.211,-0.0155,-0.619,0.654,1
26.9,-0.486,0.182,-0.667,0.845,1
26.9,-0.751,0.143,-0.301,0.821,1
27.0,-0.753,-0.0788,0.263,0.802,1
27.0,-0.778,-0.5,0.684,1.15,1
27.0,-0.856,-0.188,0.599,1.06,1
27.0,-0.7,-0.024,-0.257,0.746,1
27.0,-0.401,0.547,-0.0346,0.679,1
27.1,-0.218,1.14,0.191,1.18,1
27.1,-0.0991,1.21,-0.686,1.39,1
27.1,0.0681,1.04,-1.62,1.92,1
27.1,-0.0831,0.746,-1.55,1.72,1
27.1,-0.398,0.42,-0.639,0.862,1
27.2,-0.868,0.101,0.31,0.928,1
27.2,-1.26,0.128,0.76,1.48,1
27.2,-1.32,0.147,0.737,1.52,1
27.2,-1.1,0.532,0.303,1.26,1
27.2,-0.803,0.944,-0.251,1.26,1
27.2,-0.474,0.981,-0.696,1.29,1
27.3,-0.198,0.938,-0.343,1.02,1
27.3,0.108,0.745,-0.261,0.797,1
27.3,0.419,0.943,-0.206,1.05,1
27.3,0.781,1.13,-0.407,1.43,1
27.3,1.44,0.508,-0.76,1.7,1
27.4,1.73,-0.121,-0.318,1.76,1
27.4,1.92,0.775,0.335,2.1,1
27.4,2.51,2.35,0.467,3.47,1
27.4,2.44,2.07,0.0818,3.2,1
27.4,1.67,0.293,-0.828,1.89,1
27.4,0.47,-0.958,-1.8,2.1,1
27.5,-0.31,-1.17,-0.881,1.5,1
27.5,0.122,-1.41,0.128,1.42,1
27.5,0.789,-1.41,1.41,2.14,1
27.5,1.03,-2.28,2.23,3.36,1
27.5,0.603,-3.02,2.3,3.85,1
27.6,-0.353,-2.81,2.15,3.56,1
27.6,-0.636,-2.38,1.9,3.11,1
27.6,-0.342,-2.37,1.86,3.03,1
27.6,-0.16,-2.7,1.76,3.23,1
27.6,0.0907,-2.64,1.15,2.88,1
27.6,0.313,-2.23,0.209,2.26,1
27.7,0.699,-1.82,-0.717,2.08,1
27.7,1.23,-1.13,-1.84,2.48,1
27.7,1.88,1.79,-2.41,3.54,1
27.7,2.47,4.68,-1.58,5.52,1
27.7,1.43,2.66,-1.8,3.52,1
27.8,0.489,0.932,-1.45,1.79,1
27.8,0.142,0.243,-0.292,0.406,1
27.8,0.575,1.68,0.26,1.79,1
27.8,0.613,1.86,2.37,3.08,1
27.8,-0.644,-0.858,1.94,2.22,1
27.9,-1.51,-1.7,-0.1,2.27,1
27.9,-1.56,-0.527,-1.79,2.43,1
27.9,-1.18,1.52,-1.38,2.36,1
27.9,-1.1,1.85,0.0683,2.16,1
27.9,-1.22,0.711,0.33,1.45,1
27.9,-0.897,0.397,-0.0559,0.982,1
28.0,-0.741,0.659,-0.608,1.16,1
28.0,-0.642,0.797,-0.866,1.34,1
28.0,-0.224,-0.58,-0.798,1.01,1
28.0,-0.0417,-0.827,0.0489,0.829,1
28.0,-0.282,-0.324,0.962,1.05,1
28.1,-0.772,0.134,1.3,1.52,1
28.1,-0.933,0.0989,0.51,1.07,1
28.1,-0.365,-0.245,-0.385,0.584,1
28.1,0.248,-0.146,-0.105,0.306,1
28.1,0.326,0.373,0.754,0.902,1
28.1,0.322,0.558,-0.00212,0.644,1
28.2,0.569,0.224,-0.753,0.97,1
28.2,0.709,-0.0257,-0.694,0.993,1
28.2,0.241,-0.19,0.0966,0.322,1
28.2,-0.198,-0.258,0.776,0.841,1
28.2,-0.439,-0.256,0.997,1.12,1
28.3,-0.864,0.0566,0.698,1.11,1
28.3,-1.27,0.54,0.514,1.47,1
28.3,-1.56,0.753,0.496,1.81,1
28.3,-1.56,0.821,0.261,1.78,1
28.3,-1.09,0.838,-0.628,1.51,1
28.3,-0.149,1.45,-1.17,1.87,1
28.4,0.591,1.53,-0.935,1.89,1
28.4,0.607,0.787,0.0128,0.994,1
28.4,0.236,-0.436,0.371,0.619,1
28.4,0.186,-0.642,0.715,0.979,1
28.4,0.832,0.17,0.829,1.19,1
28.5,1.96,2.49,0.845,3.28,1
28.5,3.3,4.09,0.326,5.27,1
28.5,3.31,3.14,-1.2,4.72,1
28.5,1.24,1.85,-3.11,3.83,1
28.5,-1.25,0.227,-2.69,2.97,1
28.6,-1.77,-0.845,-0.83,2.13,1
28.6,-0.0234,-1.01,1.17,1.54,1
28.6,2.02,-1.79,2.34,3.57,1
28.6,2.03,-3.09,2.43,4.42,1
28.6,0.401,-3.88,2.27,4.52,1
28.6,0.484,-3.42,1.99,3.99,1
28.7,0.339,-3.05,1.91,3.62,1
28.7,0.0934,-2.71,1.97,3.35,1
28.7,-0.0606,-2.38,1.84,3.01,1
28.7,-0.0668,-2.39,1.0,2.6,1
28.7,0.191,-2.75,0.0145,2.76,1
28.8,0.721,-3.11,-0.754,3.28,1
28.8,1.36,-3.23,-1.16,3.69,1
28.8,1.71,-2.84,-1.06,3.48,1
28.8,1.85,-1.48,-0.586,2.44,1
28.8,2.12,1.36,-0.398,2.55,1
28.8,1.97,4.25,0.0409,4.68,1
28.9,1.53,4.98,-0.669,5.25,1
28.9,0.715,4.83,-1.43,5.08,1
28.9,-1.31,4.04,-1.36,4.46,1
28.9,-2.56,4.31,-0.272,5.02,1
28.9,-1.99,2.61,-0.202,3.28,1
29.0,-1.41,-0.56,0.0795,1.52,1
29.0,-0.707,-2.31,-0.264,2.43,1
29.0,0.0412,-2.74,-0.202,2.75,1
29.0,0.698,-1.84,0.932,2.18,1
29.0,0.499,-0.372,2.97,3.04,1
29.0,-1.0,0.342,2.69,2.9,1
29.1,-1.74,0.766,0.0226,1.9,1
29.1,-1.27,0.854,-2.24,2.71,1
29.1,-0.923,0.335,-2.14,2.35,1
29.1,-0.431,-0.3,-0.674,0.854,1
29.1,-0.0407,-0.709,1.71,1.86,1
29.2,-0.0327,-0.984,3.02,3.18,1
29.2,-0.242,-0.832,1.66,1.87,1
29.2,-0.543,0.32,-0.452,0.776,1
29.2,-0.626,1.27,-1.08,1.78,1
29.2,-0.277,1.63,-0.854,1.86,1
29.3,0.215,1.15,-1.26,1.72,1
29.3,0.558,0.805,-1.67,1.94,1
29.3,0.26,0.843,-1.55,1.79,1
29.3,-0.236,0.9,-1.07,1.42,1
29.3,-0.845,0.761,-0.526,1.25,1
29.3,-1.1,0.564,-0.418,1.31,1
29.4,-1.06,0.361,-0.351,1.18,1
29.4,-1.19,0.777,-0.41,1.48,1
29.4,-1.31,0.986,-0.653,1.77,1
29.4,-1.33,0.744,-1.13,1.89,1
29.4,-1.19,0.526,-1.05,1.67,1
29.5,-0.769,0.263,-0.915,1.22,1
29.5,-0.0814,0.276,-0.676,0.735,1
29.5,0.837,1.05,-0.12,1.35,1
29.5,1.75,3.08,1.03,3.69,1
29.5,2.82,4.0,1.62,5.16,1
29.5,3.43,1.07,1.18,3.79,1
29.6,2.31,-0.894,0.598,2.55,1
29.6,0.876,-0.621,-0.773,1.32,1
29.6,-0.366,0.585,-1.35,1.52,1
29.6,-0.809,0.63,-0.908,1.37,1
29.6,-1.11,0.178,-0.267,1.16,1
29.7,0.361,-0.865,0.26,0.973,1
29.7,0.886,-2.51,0.701,2.75,1
29.7,0.27,-3.34,0.96,3.48,1
29.7,-0.807,-3.25,2.03,3.91,1
29.7,-0.606,-3.36,2.26,4.09,1
29.7,-0.394,-3.57,2.48,4.36,1
29.8,0.0857,-3.42,2.66,4.33,1
29.8,0.577,-3.42,2.23,4.12,1
29.8,1.1,-3.16,1.23,3.57,1
29.8,1.38,-2.44,0.0139,2.81,1
29.8,2.03,-1.87,-1.15,2.99,1
29.9,2.74,-2.01,-1.59,3.75,1
29.9,3.56,-1.87,-1.64,4.35,1
29.9,3.47,1.4,-0.66,3.8,1
29.9,2.81,4.61,1.35,5.57,1
29.9,2.44,4.5,1.67,7.46,1
30.0,1.01,4.39,-2.09,4.97,1
30.0,-1.48,2.15,-4.05,4.82,1
30.0,-3.52,2.27,-2.02,4.65,1
30.0,-2.94,2.42,0.974,3.93,1
30.0,-2.32,0.437,3.37,4.12,1
30.0,-1.31,-2.71,3.71,4.78,1
30.1,-0.3,-4.34,2.46,5.0,1
30.1,0.42,-3.22,1.25,3.48,1
30.1,0.311,0.588,-0.419,0.786,1
30.1,-0.523,2.26,-1.6,2.82,1
30.1,-1.65,-0.409,-0.717,1.84,1
30.2,-1.48,-0.927,-0.0248,1.75,1
30.2,-1.19,-0.102,0.428,1.27,1
30.2,-0.532,1.13,0.553,1.36,1
30.2,-0.256,2.63,0.334,2.66,1
30.2,-0.336,3.01,-0.203,3.03,1
30.2,-0.122,2.53,-1.73,3.07,1
30.3,-0.697,1.41,-1.94,2.5,1
30.3,-0.399,0.501,-0.818,1.04,1
30.3,0.296,-0.0343,0.108,0.317,1
30.3,0.261,-0.494,0.588,0.811,1
30.3,0.0175,-0.651,0.598,0.884,1
30.4,-0.0582,-0.643,0.663,0.925,1
30.4,0.253,-0.486,0.953,1.1,1
30.4,0.623,-0.496,0.902,1.2,1
30.4,0.736,-0.491,0.525,1.03,1
30.4,0.678,-0.499,0.0539,0.843,1
30.4,0.53,-0.325,-0.234,0.664,1
30.5,0.233,-0.0973,-0.257,0.36,1
30.5,-0.00702,-0.0258,-0.159,0.161,1
30.5,-0.13,0.371,0.0445,0.395,1
30.5,-0.136,0.897,-0.0429,0.908,1
30.5,-0.209,0.887,-0.0938,0.916,1
30.6,-0.162,1.59,-0.21,1.61,1
30.6,0.417,2.62,-0.964,2.83,1
30.6,1.43,2.26,-1.16,2.91,1
30.6,1.61,1.02,-1.01,2.16,1
30.6,0.958,-0.107,-0.979,1.37,1
30.6,-0.0812,-1.45,-0.858,1.69,1
30.7,-0.807,-1.96,-0.769,2.26,1
30.7,-0.313,-0.0364,-0.587,0.666,1
30.7,0.858,4.04,-0.859,4.22,1
30.7,0.72,2.59,-0.869,5.95,1
30.7,1.11,1.14,-1.67,2.3,1
30.8,0.278,-2.74,-1.81,3.29,1
30.8,-0.872,-2.48,0.532,2.69,1
30.8,-0.334,-0.575,2.89,2.96,1
30.8,-0.0167,-0.652,3.6,3.66,1
30.8,0.405,-1.81,2.46,3.08,1
30.9,0.595,-3.62,1.81,4.09,1
30.9,-0.148,-4.19,1.28,4.39,1
30.9,-0.385,-4.09,0.505,4.14,1
30.9,-0.21,-3.65,-0.000469,3.65,1
30.9,0.262,-2.95,0.0601,2.96,1
30.9,1.08,-2.6,0.579,2.87,1
31.0,1.71,-2.53,1.52,3.41,1
31.0,2.08,-1.77,0.705,2.82,1
31.0,2.61,2.38,-0.665,3.59,1
31.0,2.63,3.9499999999999997,-0.382,7.13,1
31.0,1.37,5.52,-1.03,5.78,1
31.1,-1.86,0.624,-0.589,2.05,1
31.1,-1.81,-1.42,0.622,2.38,1
31.1,-1.13,-2.37,0.868,2.76,1
31.1,-0.576,-3.39,0.443,3.47,1
31.1,0.422,1.07,1.02,1.54,1
31.1,-0.578,1.855,3.96,2.275,1
31.2,-1.44,2.64,0.146,3.01,1
31.2,-0.815,-1.47,-2.41,2.94,1
31.2,-0.0264,-1.03,-2.94,3.11,1
31.2,-0.116,-0.51,-1.82,1.89,1
31.2,-0.772,-0.0114,1.33,1.54,1
31.3,-0.95,-1.37,3.54,3.91,1
31.3,0.114,-1.33,3.99,4.21,1
31.3,0.528,-0.0524,1.11,1.23,1
31.3,-0.219,2.02,-2.5,3.22,1
31.3,-0.753,2.99,-3.87,4.95,1
31.3,-0.86,1.93,-2.25,3.09,1
31.4,-0.549,1.07,-0.0905,1.2,1
31.4,-0.221,0.69,0.869,1.13,1
31.4,-0.0453,0.226,0.377,0.442,1
31.4,-0.303,-0.0312,-0.429,0.526,1
31.4,-0.762,-0.241,0.0311,0.8,1
31.5,-1.05,-0.284,0.354,1.14,1
31.5,-1.19,-0.0458,0.723,1.39,1
31.5,-1.26,0.169,0.602,1.41,1
31.5,-1.34,0.289,0.393,1.42,1
31.5,-1.16,0.79,0.129,1.41,1
31.6,-0.804,0.825,-0.184,1.17,1
31.6,-0.698,0.879,-0.177,1.14,1
31.6,-0.655,1.26,-0.0243,1.42,1
31.6,-0.314,1.46,-0.227,1.51,1
31.6,0.557,1.67,-0.857,1.95,1
31.6,1.19,0.701,-0.668,1.53,1
31.7,1.66,-0.949,-0.658,2.03,1
31.7,1.88,-1.24,-0.586,2.32,1
31.7,2.75,0.937,-0.218,2.91,1
31.7,3.54,4.04,0.306,5.38,1
31.7,1.69,3.54,-0.435,3.95,1
31.8,-0.35,-0.183,-2.96,2.99,1
31.8,-1.57,-2.56,-2.7,4.04,1
31.8,-1.4,-2.23,-0.241,2.65,1
31.8,-0.554,-2.02,2.46,3.24,1
31.8,0.0856,-2.57,2.59,5.15,1
31.8,0.25,-2.9,2.7199999999999998,5.81,1
31.9,0.308,-2.77,2.85,5.22,1
31.9,0.258,-2.75,2.98,4.07,1
31.9,0.335,-2.57,1.12,2.82,1
31.9,0.77,-1.96,-0.594,2.19,1
31.9,1.81,-1.51,-1.74,2.93,1
32.0,2.98,-2.42,-2.18,4.41,1
32.0,3.15,-4.14,-1.66,5.46,1
32.0,2.73,-3.42,-0.528,4.41,1
32.0,2.49,1.12,-0.00802,2.73,1
32.0,2.44,5.6,0.94,6.19,1
32.0,2.66,5.46,0.467,6.09,1
32.1,1.32,1.07,-1.2,2.08,1
32.1,-0.164,0.365,-1.09,1.16,1
32.1,-0.382,4.89,0.683,4.96,1
32.1,-1.02,2.72,0.835,3.02,1
32.1,-1.95,-1.37,0.45,2.43,1
32.2,-1.57,-1.78,-0.967,2.57,1
32.2,-0.702,-0.448,-1.47,1.69,1
32.2,0.706,1.14,-0.916,1.62,1
32.2,1.31,0.644,-0.757,1.64,1
32.2,0.466,-0.996,-0.804,1.36,1
32.3,0.217,-0.902,-1.22,1.54,1
32.3,-0.44,0.0311,-0.423,0.611,1
32.3,-1.19,0.677,0.0941,1.37,1
32.3,-1.53,0.276,0.285,1.58,1
32.3,-1.4,-0.00624,0.656,1.55,1
32.3,-1.11,0.469,0.342,1.25,1
32.4,-0.772,0.745,-0.141,1.08,1
32.4,-0.796,0.69,-0.167,1.07,1
32.4,-0.793,0.853,-0.0589,1.17,1
32.4,-0.538,0.742,-0.293,0.962,1
32.4,-0.321,0.624,-0.764,1.04,1
32.5,-0.185,0.765,-0.953,1.24,1
32.5,-0.39,0.646,-0.494,0.902,1
32.5,-0.683,0.474,-0.148,0.844,1
32.5,-0.921,0.731,-0.0821,1.18,1
32.5,-1.09,1.1,-0.498,1.63,1
32.5,-1.21,1.48,-0.783,2.06,1
32.6,-1.11,1.37,-0.566,1.85,1
32.6,-1.04,0.557,-0.229,1.2,1
32.6,-0.738,-0.0265,-0.088,0.744,1
32.6,0.135,0.0913,-0.067,0.176,1
32.6,1.18,1.4,0.323,1.86,1
32.7,2.13,3.2,0.994,3.97,1
32.7,2.94,2.47,1.19,4.02,1
32.7,2.09,0.259,0.397,2.14,1
32.7,0.71,0.163,-1.62,1.78,1
32.7,-0.977,-0.111,-2.17,2.39,1
32.7,-1.22,-0.751,-1.67,2.2,1
32.8,-0.414,-0.989,-0.116,1.08,1
32.8,0.974,-1.73,1.38,2.42,1
32.8,1.45,-3.31,2.23,4.24,1
32.8,1.25,-3.44,2.76,4.59,1
32.8,1.16,-2.43,3.13,4.13,1
32.9,0.985,-2.07,3.34,4.05,1
32.9,0.738,-2.48,3.19,4.1,1
32.9,0.658,-2.8,2.55,3.84,1
32.9,0.755,-2.81,1.48,3.26,1
32.9,0.98,-2.72,0.199,2.9,1
33.0,0.981,-2.59,-0.894,2.91,1
33.0,0.891,-2.42,-1.64,3.06,1
33.0,1.21,-0.346,-1.72,2.13,1
33.0,1.86,4.94,-1.35,5.45,1
33.0,1.4,4.94,0.166,5.13,1
33.0,1.68,0.951,0.0841,1.93,1
33.1,0.978,-0.73,0.537,1.33,1
33.1,-0.0979,1.89,1.84,2.64,1
33.1,-0.639,4.72,2.93,5.59,1
33.1,-1.99,1.4,1.0,2.63,1
33.1,-1.89,-0.917,-0.868,2.28,1
33.2,-1.05,-1.32,-2.23,2.79,1
33.2,-0.466,-0.671,-1.47,1.68,1
33.2,0.124,0.797,-0.788,1.13,1
33.2,0.506,0.748,-0.545,1.06,1
33.2,0.024,-0.377,-0.596,0.706,1
33.2,-0.512,-0.452,-0.492,0.841,1
33.3,-0.784,-0.18,0.418,0.906,1
33.3,-0.914,-0.116,0.849,1.25,1
33.3,-0.518,-0.0594,0.528,0.742,1
33.3,-0.0588,0.691,0.308,0.759,1
33.3,0.439,1.33,-0.0375,1.4,1
33.4,0.562,1.54,-0.514,1.72,1
33.4,0.198,1.58,-0.626,1.71,1
33.4,-0.119,1.03,-0.696,1.25,1
33.4,-0.319,0.398,-0.809,0.957,1
33.4,-0.406,0.0503,-0.594,0.721,1
33.4,-0.482,-0.221,0.0326,0.531,1
33.5,-0.589,-0.394,0.927,1.17,1
33.5,-0.593,-0.319,1.14,1.32,1
33.5,-0.597,-0.0832,0.783,0.988,1
33.5,-0.981,0.391,0.133,1.06,1
33.5,-1.1,0.911,-0.0877,1.43,1
33.6,-0.961,0.905,0.011,1.32,1
33.6,-0.596,1.02,0.0166,1.18,1
33.6,-0.141,1.2,0.0547,1.21,1
33.6,0.291,1.05,-0.398,1.16,1
33.6,0.88,1.23,-0.837,1.73,1
33.7,1.38,1.18,-0.737,1.96,1
33.7,1.65,0.114,-0.448,1.71,1
33.7,1.68,-1.04,-0.288,2.0,1
33.7,2.03,-0.245,0.178,2.05,1
33.7,2.53,1.83,0.362,3.14,1
33.7,2.02,2.57,0.04,3.27,1
33.8,-0.0619,1.1,-1.38,1.76,1
33.8,-1.68,-0.908,-2.1,2.84,1
33.8,-1.65,-1.83,-1.17,2.73,1
33.8,-0.748,-1.98,0.758,2.25,1
33.8,0.269,-2.46,2.4,3.45,1
33.9,0.392,-2.95,3.34,4.47,1
33.9,-0.0526,-2.77,3.03,4.1,1
33.9,-0.146,-2.53,2.51,3.56,1
33.9,-0.13,-2.6,1.66,3.09,1
33.9,0.178,-2.58,0.834,2.72,1
33.9,0.68,-2.42,0.134,2.52,1
34.0,1.14,-2.45,-0.627,2.78,1
34.0,1.45,-2.71,-1.16,3.29,1
34.0,1.52,-2.06,-1.57,3.01,1
34.0,1.75,0.879,-1.27,2.33,1
34.0,1.29,3.46,0.00522,3.69,1
34.1,0.557,2.75,0.49,2.84,1
34.1,0.288,1.12,-0.281,1.19,1
34.1,0.785,4.4,-0.723,4.53,1
34.1,0.363,4.21,1.23,4.4,1
34.1,-0.597,-0.548,0.902,1.21,1
34.1,-0.452,-1.5,-1.26,2.01,1
34.2,-0.0383,-0.636,-2.46,2.54,1
34.2,0.786,1.11,-1.77,2.23,1
34.2,0.948,1.03,0.0848,1.4,1
34.2,0.0774,-0.234,0.517,0.573,1
34.2,-0.719,-0.533,-0.05,0.896,1
34.3,-1.77,0.409,-0.542,1.9,1
34.3,-2.3,0.607,-0.467,2.43,1
34.3,-2.3,0.0696,0.614,2.38,1
34.3,-1.87,-0.633,1.46,2.45,1
34.3,-1.29,-1.14,1.68,2.41,1
34.4,-0.952,-1.13,1.0,1.78,1
34.4,-0.685,-0.959,0.505,1.28,1
34.4,-0.347,-0.419,-0.0162,0.544,1
34.4,-0.262,1.53,-0.0363,1.55,1
34.4,-0.23,2.98,-0.565,3.04,1
34.4,0.518,2.21,-1.9,2.96,1
34.5,1.19,1.24,-2.43,2.98,1
34.5,0.873,1.28,-1.59,2.23,1
34.5,0.0528,1.27,-0.697,1.45,1
34.5,-0.542,1.03,-0.297,1.2,1
34.5,-0.829,0.751,-0.0947,1.12,1
34.6,-0.942,0.854,-0.366,1.32,1
34.6,-0.76,1.01,-0.591,1.39,1
34.6,-0.474,0.248,-0.655,0.846,1
34.6,0.331,-0.438,-0.408,0.684,1
34.6,1.31,0.0376,-0.4,1.37,1
34.6,2.68,2.56,-0.222,3.71,1
34.7,2.915,5.11,1.13,6.54,1
34.7,3.15,2.58,0.589,4.11,1
34.7,0.791,-0.455,-1.32,1.61,1
34.7,-0.978,-1.5,-1.43,2.29,1
34.7,-1.82,-1.21,0.0646,2.19,1
34.8,-1.66,-0.438,1.17,2.08,1
34.8,-0.415,-0.796,2.08,2.27,1
34.8,0.132,-2.72,2.18,3.49,1
34.8,-0.442,-4.23,2.03,4.71,1
34.8,-0.773,-3.97,2.13,4.57,1
34.8,-0.543,-3.41,2.33,4.17,1
34.9,-0.483,-3.28,2.7,4.27,1
34.9,-0.183,-3.03,2.68,4.05,1
34.9,0.331,-2.74,1.92,3.36,1
34.9,1.05,-2.53,0.74,2.83,1
34.9,1.59,-2.29,-0.329,2.81,1
35.0,1.72,-1.88,-0.763,2.66,1
35.0,1.39,-2.08,-0.818,2.64,1
35.0,1.46,-0.136,-0.306,1.49,1
35.0,1.13,5.15,1.28,5.43,1
35.0,0.84,4.300000000000001,1.33,7.29,1
35.1,0.38,3.45,-0.362,3.49,1
35.1,-0.0224,0.751,-1.49,1.67,1
35.1,0.805,3.45,-1.56,3.87,1
35.1,1.08,3.15,0.808,3.42,1
35.1,0.575,-1.11,0.205,1.26,1
35.1,0.448,-2.46,-1.53,2.93,1
35.2,0.33,-0.893,-1.89,2.11,1
35.2,0.846,0.833,-1.68,2.06,1
35.2,-0.0405,0.572,-0.625,0.848,1
35.2,-1.65,-0.18,-0.114,1.66,1
35.2,-2.23,-0.332,0.559,2.32,1
35.3,-2.08,0.0177,1.11,2.36,1
35.3,-1.53,-0.301,1.09,1.9,1
35.3,-0.954,-0.613,1.32,1.74,1
35.3,0.29,-0.498,0.791,0.978,1
35.3,0.966,-0.161,0.882,1.32,1
35.3,1.06,0.878,0.746,1.57,1
35.4,0.884,1.36,-0.567,1.72,1
35.4,0.914,1.56,-1.82,2.56,1
35.4,0.604,1.33,-2.25,2.69,1
35.4,-0.23,0.98,-1.63,1.92,1
35.4,-0.909,0.782,-0.584,1.33,1
35.5,-1.12,0.817,0.0649,1.38,1
35.5,-1.0,0.993,0.445,1.48,1
35.5,-0.948,1.38,-0.26,1.69,1
35.5,-0.715,1.69,-1.45,2.34,1
35.5,-0.517,1.59,-2.15,2.73,1
35.5,-0.407,1.18,-1.75,2.15,1
35.6,0.221,-0.0518,-0.888,0.916,1
35.6,0.905,-0.779,-0.344,1.24,1
35.6,1.19,0.483,1.11,1.7,1
35.6,2.0,3.5,2.06,4.53,1
35.6,2.81,3.74,1.23,4.84,1
35.7,2.21,0.916,-0.517,2.45,1
35.7,0.45,-0.0933,-1.75,1.81,1
35.7,-1.61,0.126,-0.699,1.76,1
35.7,-2.04,0.189,1.12,2.34,1
35.7,-1.09,-0.801,1.91,2.34,1
35.8,0.336,-3.11,1.78,3.6,1
35.8,0.799,-5.31,1.98,5.72,1
35.8,0.258,-5.56,2.42,6.07,1
35.8,0.488,-4.83,2.86,5.64,1
35.8,0.273,-4.38,2.84,5.23,1
35.8,-0.0658,-3.74,2.51,4.5,1
35.9,-0.377,-3.14,1.29,3.41,1
35.9,-0.447,-2.76,-0.475,2.84,1
35.9,-0.143,-2.57,-2.03,3.28,1
35.9,0.0994,-1.69,-2.87,3.33,1
35.9,0.647,2.6,-1.77,3.21,1
36.0,1.05,3.9800000000000004,0.235,7.56,1
36.0,1.25,5.36,1.6,5.73,1
36.0,2.74,2.87,1.08,4.11,1
36.0,2.2800000000000002,3.97,1.25,5.74,1
36.0,1.82,0.65,0.472,1.99,1
36.0,0.243,-3.01,-0.66,3.09,1
36.1,-0.243,-3.31,-0.394,3.34,1
36.1,-0.485,-1.42,0.137,1.51,1
36.1,-0.478,1.29,0.993,1.7,1
36.1,-0.861,0.109,1.45,1.69,1
36.1,-1.28,-2.34,1.16,2.91,1
36.2,-1.14,-2.22,1.41,2.87,1
36.2,-0.974,-0.547,1.71,2.04,1
36.2,-0.332,3.08,-0.0394,3.1,1
36.2,0.25,5.49,-1.67,5.75,1
36.2,-0.135,4.24,-2.44,4.9,1
36.2,-0.613,3.2,-3.12,4.51,1
36.3,-0.598,1.46,-1.79,2.39,1
36.3,0.0358,-0.43,-0.399,0.588,1
36.3,0.702,-1.01,1.16,1.69,1
36.3,-0.186,-1.54,2.23,2.71,1
36.3,-0.735,-1.16,1.39,1.96,1
36.4,-1.76,-0.393,0.853,2.0,1
36.4,-2.2,-0.241,0.182,2.22,1
36.4,-1.38,-0.241,-0.215,1.42,1
36.4,-0.701,-0.0247,-0.0928,0.708,1
36.4,-0.59,0.834,0.265,1.06,1
36.5,-0.524,1.22,-0.0789,1.33,1
36.5,-0.246,1.25,-0.807,1.51,1
36.5,-0.0903,1.4,-1.0,1.73,1
36.5,0.292,1.41,-0.744,1.62,1
36.5,1.01,1.79,-0.326,2.08,1
36.5,1.61,1.88,0.309,2.49,1
36.6,1.59,0.478,0.44,1.72,1
36.6,1.02,-1.37,0.0252,1.71,1
36.6,0.557,-2.04,-0.00956,2.11,1
36.6,0.828,-1.04,-0.359,1.38,1
36.6,1.9,2.13,-0.702,2.94,1
36.7,2.01,4.53,-0.293,4.96,1
36.7,-0.532,2.54,-0.779,2.71,1
36.7,-1.16,-0.778,-2.32,2.71,1
36.7,-1.29,-2.35,-1.7,3.18,1
36.7,-0.704,-2.15,0.368,2.29,1
36.7,0.0869,-1.53,2.47,2.91,1
36.8,0.629,-1.94,3.59,4.13,1
36.8,0.645,-2.47,3.47,4.31,1
36.8,0.67,-2.71,2.42,3.69,1
36.8,0.649,-3.1,1.31,3.43,1
36.8,0.364,-3.3,0.367,3.34,1
36.9,0.385,-3.12,-0.232,3.16,1
36.9,0.789,-2.75,-0.441,2.9,1
36.9,1.46,-2.66,-0.449,3.06,1
36.9,1.68,-3.12,-0.303,3.55,1
36.9,1.68,-3.13,0.203,3.56,1
36.9,1.69,0.453,1.1,2.07,1
37.0,1.99,5.51,1.72,6.11,1
37.0,2.02,4.86,1.24,5.41,1
37.0,1.49,1.61,-0.619,2.28,1
37.0,1.16,1.08,-1.45,2.15,1
37.0,1.72,4.16,-0.819,4.57,1
37.1,1.81,3.02,0.966,3.65,1
37.1,0.297,-1.25,0.149,1.29,1
37.1,-0.858,-2.53,-0.539,2.73,1
37.1,-0.727,-2.15,-0.978,2.47,1
37.1,0.316,-0.333,-0.778,0.904,1
37.2,0.147,0.713,-0.225,0.762,1
37.2,-0.235,-0.272,-0.0228,0.36,1
37.2,-0.323,-0.688,0.984,1.24,1
37.2,-0.313,0.025,2.07,2.09,1
37.2,-0.774,1.28,0.571,1.6,1
37.2,-1.03,2.1,-1.59,2.83,1
37.3,-0.879,2.49,-1.9,3.25,1
37.3,-0.896,2.5,-1.27,2.95,1
37.3,-0.797,1.95,-0.88,2.28,1
37.3,-0.797,0.967,-0.586,1.38,1
37.3,-0.76,0.251,-0.284,0.849,1
37.4,-0.811,-0.0154,-0.0657,0.814,1
37.4,-1.01,-0.256,0.0113,1.04,1
37.4,-1.17,-0.297,0.355,1.26,1
37.4,-1.3,-0.145,0.691,1.48,1
37.4,-1.23,-0.0484,0.593,1.36,1
37.4,-1.07,0.235,0.186,1.11,1
37.5,-0.899,0.58,-0.0949,1.07,1
37.5,-0.812,1.03,-0.238,1.33,1
37.5,-0.659,1.41,-0.689,1.7,1
37.5,-0.509,1.69,-1.14,2.1,1
37.5,-0.0979,1.47,-1.55,2.14,1
37.6,0.57,1.53,-1.11,1.98,1
37.6,1.06,1.26,-0.107,1.65,1
37.6,1.46,1.49,0.809,2.24,1
37.6,2.38,2.98,2.3,4.45,1
37.6,3.47,2.33,2.56,4.9,1
37.6,3.66,-1.08,0.614,3.86,1
37.7,1.48,-2.11,-1.6,3.03,1
37.7,-1.11,-0.483,-2.33,2.63,1
37.7,-2.35,0.467,-1.08,2.63,1
37.7,-2.08,0.558,-0.0851,2.16,1
37.7,-0.619,-0.791,0.859,1.32,1
37.8,0.266,-2.79,1.45,3.16,1
37.8,-0.771,-4.26,2.72,5.12,1
37.8,-0.503,-3.63,3.54,5.09,1
37.8,-0.307,-2.84,4.19,5.08,1
37.8,-0.0576,-2.67,4.37,5.12,1
37.8,0.302,-2.8,3.25,4.3,1
37.9,0.959,-3.07,1.38,3.5,1
37.9,1.6,-3.44,-0.374,3.81,1
37.9,2.07,-3.52,-1.71,4.43,1
37.9,2.27,-3.0,-2.43,4.48,1
37.9,2.11,-2.45,-1.9,3.75,1
38.0,1.82,-1.88,0.0141,2.61,1
38.0,1.97,0.873,1.16,2.45,1
38.0,2.23,1.6219999999999999,3.83,3.08,1
38.0,0.71,2.371,4.29,3.71,1
38.0,-1.97,3.12,2.28,4.34,1
38.1,-2.0,0.282,-1.27,2.39,1
38.1,0.156,-0.151,-3.61,3.62,1
38.1,2.1,1.51,-3.06,4.01,1
38.1,2.53,1.18,0.527,2.84,1
38.1,1.03,-1.94,1.9,2.9,1
38.1,0.428,-2.75,0.469,2.82,1
38.2,0.333,-2.02,-0.59,2.13,1
38.2,-0.175,-0.953,-0.486,1.08,1
38.2,-1.29,-0.151,0.758,1.5,1
38.2,-1.52,0.77,1.1,2.03,1
38.2,-1.06,3.45,0.143,3.61,1
38.3,-1.16,5.61,-0.82,5.79,1
38.3,-1.07,4.470000000000001,-4.13,7.32,1
38.3,-1.02,3.33,-3.26,5.79,1
38.3,-0.62,0.627,-2.39,2.55,1
38.3,-0.216,-0.64,-0.0767,0.68,1
38.3,-0.3,-1.2,1.64,2.05,1
38.4,-0.329,-1.64,2.02,2.62,1
38.4,-0.629,-1.38,1.22,1.95,1
38.4,-1.32,-0.301,0.402,1.41,1
38.4,-1.65,0.542,-0.0132,1.73,1
38.4,-0.902,0.603,-0.54,1.21,1
38.5,-0.324,0.746,-1.05,1.33,1
38.5,-0.0755,1.09,-0.463,1.19,1
38.5,0.219,1.45,-0.771,1.66,1
38.5,0.358,1.91,-1.13,2.25,1
38.5,0.279,2.15,-1.6,2.7,1
38.5,0.131,1.67,-1.87,2.51,1
38.6,0.0804,0.6,-1.72,1.82,1
38.6,0.00099,0.285,-1.08,1.12,1
38.6,0.156,0.939,0.128,0.96,1
38.6,0.967,2.28,1.4,2.85,1
38.6,2.23,2.91,1.9,4.14,1
38.7,3.56,2.22,1.51,4.46,1
38.7,3.23,0.639,0.425,3.32,1
38.7,1.28,-0.578,-0.696,1.57,1
38.7,-0.677,-1.54,-1.36,2.17,1
38.7,-1.52,-0.969,-0.937,2.03,1
38.8,-0.389,-0.729,0.887,1.21,1
38.8,-0.249,-2.32,3.4,4.12,1
38.8,-1.28,-3.61,3.96,5.51,1
38.8,-2.03,-4.13,4.33,6.32,1
38.8,-1.48,-3.76,3.52,5.36,1
38.8,-1.05,-3.91,3.12,5.11,1
38.9,-0.542,-4.2,2.54,4.94,1
38.9,-0.0258,-4.22,1.53,4.49,1
38.9,0.567,-3.73,0.398,3.79,1
38.9,1.18,-3.05,-0.698,3.34,1
38.9,1.67,-2.04,-1.25,2.92,1
39.0,2.29,-0.852,-1.34,2.79,1
39.0,2.74,0.228,-0.733,2.84,1
39.0,3.61,4.08,0.911,5.52,1
39.0,3.1,4.285,1.7,7.02,1
39.0,1.64,4.49,1.03,4.89,1
39.0,0.0266,2.44,0.303,2.46,1
39.1,0.0201,2.8,-0.326,2.82,1
39.1,-0.0046,3.88,0.273,3.89,1
39.1,-0.164,0.601,0.254,0.673,1
39.1,0.145,-2.69,-1.17,2.93,1
39.1,0.256,-2.22,-1.95,2.97,1
39.2,1.15,-0.116,-1.29,1.73,1
39.2,0.297,-0.297,-0.674,0.794,1
39.2,-0.623,-0.604,0.499,1.0,1
39.2,-1.83,-1.49,1.86,3.0,1
39.2,-2.45,-1.69,2.57,3.93,1
39.2,-2.21,-1.04,2.43,3.44,1
39.3,-0.867,0.977,1.53,2.01,1
39.3,0.00221,3.55,-0.937,3.67,1
39.3,0.121,4.18,-3.19,5.26,1
39.3,-0.057,3.48,-3.03,4.62,1
39.3,0.115,1.54,-2.33,2.79,1
39.4,0.0417,0.417,-1.3,1.37,1
39.4,-0.248,-0.105,0.153,0.309,1
39.4,-0.728,-0.36,0.373,0.893,1
39.4,-1.08,-0.28,0.0686,1.12,1
39.4,-1.08,0.204,0.371,1.16,1
39.5,-1.05,0.857,0.433,1.42,1
39.5,-1.17,1.06,0.379,1.63,1
39.5,-1.32,1.25,-0.0478,1.82,1
39.5,-0.734,1.51,-1.05,1.97,1
39.5,0.0137,1.47,-1.71,2.26,1
39.5,0.554,1.21,-1.91,2.32,1
39.6,0.74,0.548,-1.48,1.74,1
39.6,1.04,-0.61,-0.981,1.56,1
39.6,0.989,-0.511,-0.126,1.12,1
39.6,1.75,1.78,0.41,2.52,1
39.6,3.08,4.66,1.29,5.74,1
39.7,2.34,2.99,0.855,3.9,1
39.7,0.576,0.239,-1.29,1.43,1
39.7,-0.95,-1.09,-1.71,2.24,1
39.7,-2.53,-1.52,0.281,2.96,1
39.7,-2.05,-0.946,2.55,3.41,1
39.7,-0.852,-1.75,4.03,4.48,1
39.8,-0.249,-3.63,3.72,5.2,1
39.8,-0.594,-4.63,3.1,5.6,1
39.8,-0.453,-4.06,2.39,4.73,1
39.8,-0.35,-3.69,1.82,4.13,1
39.8,-0.198,-2.88,1.54,3.27,1
39.9,0.213,-1.85,1.18,2.21,1
39.9,1.07,-0.917,0.422,1.47,1
39.9,2.44,-0.834,-0.57,2.64,1
39.9,3.51,-1.74,-1.06,4.06,1
39.9,3.5124999999999997,-2.85,-0.985,5.03,1
39.9,3.5149999999999997,-1.38,-0.711,4.5,1
40.0,3.5175,2.69,0.493,4.79,1
40.0,3.52,3.3899999999999997,1.79,6.94,1
40.0,1.85,4.09,-0.3,4.5,1
40.0,-0.399,1.33,-1.48,2.03,1
40.0,-0.593,0.62,-0.97,1.29,1
40.1,0.249,1.28,-0.609,1.44,1
40.1,1.56,1.96,0.288,2.52,1
40.1,1.07,-0.608,0.999,1.59,1
40.1,-0.25,-1.52,0.357,1.58,1
40.1,-1.1,-0.512,-0.807,1.46,1
40.2,-1.55,0.977,-1.24,2.21,1
40.2,-1.85,1.86,-1.19,2.88,1
40.2,-2.29,1.12,-0.594,2.62,1
40.2,-1.8,0.197,-0.0376,1.81,1
40.2,-0.469,-0.0637,0.384,0.609,1
40.2,-0.0854,-0.319,0.963,1.02,1
40.3,-0.213,-0.322,1.69,1.73,1
40.3,-0.823,-0.637,1.84,2.12,1
40.3,-1.09,-0.604,1.37,1.85,1
40.3,-0.557,0.00377,0.0927,0.565,1
40.3,0.0791,0.418,-0.622,0.753,1
40.4,0.447,0.855,-0.691,1.19,1
40.4,0.373,0.889,-0.893,1.31,1
40.4,0.00393,0.574,-0.664,0.878,1
40.4,-0.464,0.437,-0.624,0.892,1
40.4,-1.03,0.57,-0.329,1.22,1
40.4,-1.39,0.488,0.182,1.48,1
40.5,-1.72,0.41,0.779,1.93,1
40.5,-2.05,0.194,0.726,2.18,1
40.5,-1.79,0.346,0.418,1.87,1
40.5,-1.53,0.605,0.0264,1.64,1
40.5,-1.2,0.92,-0.169,1.52,1
40.6,-0.638,1.01,-0.249,1.22,1
40.6,-0.188,0.808,-0.313,0.887,1
40.6,0.13,0.517,-0.389,0.66,1
40.6,0.651,0.728,-0.503,1.1,1
40.6,1.47,1.09,-0.339,1.86,1
40.6,2.31,1.76,-0.339,2.92,1
40.7,3.21,3.02,-0.168,4.41,1
40.7,3.15,2.24,0.225,3.87,1
40.7,1.69,0.31,-0.847,1.92,1
40.7,0.198,-0.169,-1.65,1.67,1
40.7,-1.29,-0.151,-0.683,1.47,1
40.8,-1.49,-0.708,0.0533,1.65,1
40.8,-0.754,-1.58,0.746,1.9,1
40.8,0.754,-2.17,1.55,2.77,1
40.8,0.846,-2.81,2.15,3.64,1
40.8,0.663,-3.31,2.35,4.12,1
40.9,0.934,-3.21,2.11,3.95,1
40.9,0.961,-2.94,2.16,3.78,1
40.9,0.961,-2.8,2.24,3.71,1
40.9,1.04,-2.44,1.6,3.1,1
40.9,1.13,-2.09,0.306,2.39,1
40.9,1.24,-1.72,-0.765,2.25,1
41.0,1.36,-1.31,-1.49,2.41,1
41.0,1.77,-1.13,-2.02,2.91,1
41.0,2.17,-0.96,-1.78,2.97,1
41.0,2.97,0.361,-1.15,3.21,1
41.0,3.38,0.93,0.608,3.55,1
41.1,2.76,1.47,2.63,4.09,1
41.1,0.801,2.5,3.05,4.03,1
41.1,-0.924,3.84,0.62,4.0,1
41.1,-0.427,3.645,-0.914,7.12,1
41.1,-0.819,3.45,-1.17,3.73,1
41.1,-0.593,-1.09,-1.54,1.98,1
41.2,-0.37,-2.9,-1.54,3.3,1
41.2,0.37,-2.36,-0.365,2.41,1
41.2,1.18,-0.508,0.311,1.32,1
41.2,0.365,0.17,0.772,0.87,1
41.2,-1.16,0.19,0.791,1.41,1
41.3,-2.44,0.552,-0.818,2.63,1
41.3,-3.05,0.477,-0.665,3.16,1
41.3,-2.91,0.28,0.389,2.95,1
41.3,-2.16,0.0875,0.992,2.38,1
41.3,-1.22,-0.0161,0.511,1.32,1
41.3,-0.148,0.661,-0.155,0.695,1
41.4,0.0769,0.595,-0.407,0.725,1
41.4,-0.481,0.582,-0.822,1.12,1
41.4,-0.623,0.735,-1.18,1.52,1
41.4,-0.527,0.612,-1.07,1.34,1
41.4,-0.543,0.456,-0.595,0.926,1
41.5,-0.543,0.897,0.0101,1.05,1
41.5,-0.612,1.31,0.545,1.54,1
41.5,-0.78,1.53,0.000148,1.72,1
41.5,-0.646,1.58,-0.986,1.97,1
41.5,-0.243,1.66,-1.26,2.1,1
41.6,-0.0638,1.12,-0.912,1.44,1
41.6,-0.013,0.0677,-0.782,0.785,1
41.6,0.224,-0.497,-0.43,0.694,1
41.6,0.752,-0.476,0.0144,0.89,1
41.6,1.9,1.2,0.145,2.25,1
41.6,3.72,4.5,0.865,5.9,1
41.7,2.99,4.36,1.51,6.97,1
41.7,2.26,0.304,0.418,3.95,1
41.7,1.53,-1.41,-1.8,2.75,1
41.7,-0.872,-0.786,-1.53,1.93,1
41.7,-2.27,-0.657,-0.0577,2.36,1
41.8,-1.89,-0.791,1.27,2.41,1
41.8,-0.505,-2.08,1.99,2.92,1
41.8,-0.176,-3.84,1.87,4.28,1
41.8,-1.62,-5.17,1.75,5.69,1
41.8,-1.07,-4.49,1.31,4.8,1
41.8,-0.909,-3.76,1.85,4.28,1
41.9,-0.613,-3.05,2.48,3.98,1
41.9,-0.0864,-2.24,2.86,3.63,1
41.9,0.465,-1.64,2.63,3.13,1
41.9,0.946,-1.39,1.77,2.44,1
41.9,1.56,-1.13,-0.07,1.92,1
42.0,2.46,-1.19,-1.84,3.29,1
42.0,3.42,-1.97,-2.59,4.72,1
42.0,3.42,0.00988,-1.55,3.76,1
42.0,3.15,4.27,-0.16,5.31,1
42.0,2.97,3.78,1.26,6.65,1
42.0,2.08,3.29,0.765,3.97,1
42.1,1.03,3.93,-0.883,4.16,1
42.1,0.438,4.55,-0.433,4.59,1
42.1,-1.67,-1.09,0.139,2.0,1
42.1,-2.54,-3.51,0.29,4.34,1
42.1,-1.96,-3.54,-0.046,4.05,1
42.2,-0.73,-1.35,0.773,1.72,1
42.2,0.279,1.29,1.54,2.03,1
42.2,-0.228,-0.233,1.14,1.19,1
42.2,-0.291,-1.1,-0.528,1.26,1
42.2,0.0462,0.181,-1.16,1.18,1
42.3,0.215,2.01,-1.24,2.37,1
42.3,0.14,3.72,-1.23,3.92,1
42.3,-0.404,3.97,-1.43,4.24,1
42.3,-1.03,2.98,-1.15,3.36,1
42.3,-1.25,1.59,-0.867,2.2,1
42.3,-1.14,0.698,-0.207,1.35,1
42.4,-1.12,-0.248,0.393,1.22,1
42.4,-1.18,-1.01,0.7,1.71,1
42.4,-1.31,-1.11,0.799,1.89,1
42.4,-1.36,-0.975,0.856,1.88,1
42.4,-0.98,-0.819,0.746,1.48,1
42.5,-0.565,-0.77,0.329,1.01,1
42.5,-0.325,-0.417,-0.173,0.556,1
42.5,-0.455,0.117,-0.462,0.659,1
42.5,-0.693,0.589,-0.521,1.05,1
42.5,-1.17,1.24,-0.619,1.81,1
42.5,-1.08,2.12,-0.823,2.52,1
42.6,-0.844,2.63,-0.892,2.9,1
42.6,0.101,2.44,-0.674,2.54,1
42.6,0.542,1.67,-0.0778,1.76,1
42.6,0.986,0.746,0.518,1.34,1
42.6,1.36,0.0465,0.189,1.37,1
42.7,2.07,0.189,0.172,2.09,1
42.7,3.41,1.73,0.17,3.83,1
42.7,2.58,2.99,0.335,5.12,1
42.7,1.75,1.77,-0.0572,2.49,1
42.7,-0.987,-0.786,-1.98,2.35,1
42.7,-2.14,-1.98,-2.11,3.6,1
42.8,-2.71,-1.73,-1.04,3.38,1
42.8,-1.87,-1.4,0.622,2.41,1
42.8,-0.634,-2.24,2.12,3.15,1
42.8,0.0316,-3.17,3.5,4.73,1
42.8,0.714,-3.68,3.493333333333333,5.97,1
42.9,0.812,-3.8,3.486666666666667,5.92,1
42.9,0.709,-3.49,3.48,4.98,1
42.9,0.506,-3.2,1.95,3.79,1
42.9,0.624,-3.18,0.219,3.24,1
42.9,1.29,-3.21,-1.5,3.77,1
43.0,2.07,-3.06,-2.61,4.52,1
43.0,2.49,-2.98,-2.44,4.59,1
43.0,2.12,-2.84,-1.36,3.79,1
43.0,2.32,0.541,-0.61,2.46,1
43.0,2.14,1.3573333333333335,2.04,6.49,1
43.0,0.863,2.173666666666667,4.12,5.38,1
43.1,-2.38,2.99,1.9,4.27,1
43.1,-2.7,1.88,-1.24,3.52,1
43.1,-0.758,5.27,-1.91,5.66,1
43.1,-0.381,4.01,-1.52,4.31,1
43.1,0.978,-0.951,-1.66,2.15,1
43.2,1.16,-3.18,-2.16,4.02,1
43.2,2.55,-1.24,-1.63,3.27,1
43.2,2.01,-0.263,-0.336,2.06,1
43.2,0.285,0.0905,0.432,0.526,1
43.2,-1.14,0.361,-0.156,1.2,1
43.2,-2.79,0.537,0.297,2.85,1
43.3,-3.56,0.589,1.56,3.93,1
43.3,-3.22,0.264,1.68,3.64,1
43.3,-1.93,-0.477,0.643,2.09,1
43.3,-0.896,-1.08,0.289,1.43,1
43.3,-0.27,-1.05,0.665,1.27,1
43.4,0.0423,-0.848,1.08,1.37,1
43.4,0.371,-0.00669,1.03,1.09,1
43.4,0.442,0.879,-0.26,1.02,1
43.4,0.569,1.59,-1.97,2.59,1
43.4,1.03,1.85,-2.61,3.36,1
43.4,0.98,1.65,-2.23,2.94,1
43.5,0.619,0.989,-1.71,2.07,1
43.5,0.00589,1.04,-0.878,1.36,1
43.5,-0.435,1.29,-0.224,1.38,1
43.5,-0.767,1.19,-0.438,1.48,1
43.5,-0.902,0.634,-0.5,1.21,1
43.6,-0.765,0.0464,-0.304,0.824,1
43.6,0.0599,0.591,0.473,0.76,1
43.6,1.33,2.0,0.46,2.45,1
43.6,2.47,3.65,0.75,4.47,1
43.6,3.5,2.37,0.952,4.33,1
43.7,2.98,-0.501,0.931,3.16,1
43.7,1.71,-0.725,-0.256,1.88,1
43.7,-0.172,0.543,-1.72,1.81,1
43.7,-1.56,1.12,-1.01,2.17,1
43.7,-1.55,0.105,-0.147,1.56,1
43.7,-0.346,-1.42,0.791,1.66,1
43.8,0.685,-3.3,1.2,3.58,1
43.8,0.882,-4.7,1.63,5.06,1
43.8,-0.00175,-4.62,2.58,5.3,1
43.8,-0.234,-3.07,3.33,4.54,1
43.8,-0.567,-2.6,3.49,4.39,1
43.9,-0.932,-2.23,3.37,4.14,1
43.9,-0.636,-1.97,2.27,3.08,1
43.9,0.235,-1.75,0.446,1.82,1
43.9,1.13,-1.64,-0.941,2.2,1
43.9,1.99,-1.46,-1.52,2.9,1
43.9,2.28,-2.03,-1.41,3.36,1
44.0,2.44,-1.0,-1.23,2.91,1
44.0,2.76,3.23,-0.749,4.32,1
44.0,2.45,3.415,0.295,6.24,1
44.0,1.25,3.6,0.181,3.81,1
44.0,-0.296,0.81,-0.669,1.09,1
44.1,-0.989,0.208,-1.08,1.48,1
44.1,-0.219,2.04,0.626,2.14,1
44.1,0.177,2.39,2.01,3.13,1
44.1,-0.344,-0.272,1.49,1.56,1
44.1,0.211,-1.4,0.342,1.46,1
44.1,0.448,-0.909,-0.887,1.35,1
44.2,0.111,-0.195,-1.61,1.62,1
44.2,0.0167,0.281,-1.69,1.72,1
44.2,-0.305,-0.0315,-0.904,0.955,1
44.2,-0.598,-0.36,0.478,0.846,1
44.2,-0.803,-0.411,1.08,1.41,1
44.3,-1.04,-0.12,1.43,1.77,1
44.3,-0.985,-0.161,1.01,1.42,1
44.3,-0.824,-0.171,0.672,1.08,1
44.3,-0.573,0.146,0.435,0.734,1
44.3,-0.0683,0.49,-0.0503,0.497,1
44.4,-0.0207,1.45,-0.476,1.53,1
44.4,-0.322,2.32,-0.893,2.5,1
44.4,-0.532,1.94,-1.44,2.48,1
44.4,-0.506,1.14,-1.46,1.92,1
44.4,-0.515,0.445,-0.891,1.12,1
44.4,-0.675,0.0103,0.037,0.676,1
44.5,-0.773,-0.0583,0.793,1.11,1
44.5,-0.795,0.19,0.908,1.22,1
44.5,-0.942,0.317,0.448,1.09,1
44.5,-0.931,0.931,-0.37,1.37,1
44.5,-0.594,1.22,-0.838,1.6,1
44.6,-0.263,1.21,-0.679,1.41,1
44.6,0.0692,1.22,-0.355,1.27,1
44.6,0.5,1.12,-0.308,1.27,1
44.6,1.15,0.44,-0.471,1.32,1
44.6,1.61,0.101,-0.232,1.63,1
44.6,2.05,0.624,0.326,2.17,1
44.7,2.75,2.09,0.83,3.55,1
44.7,3.06,2.35,1.34,4.08,1
44.7,2.52,0.891,0.397,2.7,1
44.7,0.81,0.0325,-1.19,1.44,1
44.7,-1.03,-0.168,-1.5,1.83,1
44.8,-2.1,-0.348,-0.788,2.27,1
44.8,-1.84,-0.439,0.31,1.92,1
44.8,-0.342,-1.36,1.06,1.75,1
44.8,0.386,-2.78,1.5,3.18,1
44.8,-0.0745,-3.98,1.72,4.34,1
44.8,-0.552,-4.6,2.13,5.1,1
44.9,-0.349,-3.72,2.42,4.45,1
44.9,-0.406,-3.23,2.8,4.29,1
44.9,-0.407,-2.98,2.59,3.97,1
44.9,-0.295,-2.83,1.53,3.23,1
44.9,0.00912,-2.65,-0.0642,2.66,1
45.0,0.479,-2.27,-1.54,2.79,1
45.0,0.876,-1.66,-2.36,3.01,1
45.0,1.29,-0.656,-2.55,2.93,1
45.0,2.13,2.18,-1.09,3.24,1
45.0,2.13,4.2,1.35,4.9,1
45.0,1.49,3.7,2.81,4.88,1
45.1,1.26,2.09,3.0,3.87,1
45.1,0.364,0.395,1.58,1.67,1
45.1,0.537,0.944,-0.365,1.15,1
45.1,0.896,2.85,-1.28,3.25,1
45.1,0.785,2.03,-0.955,2.38,1
45.2,-0.0282,-0.276,-1.42,1.44,1
45.2,-0.187,-1.14,-1.7,2.05,1
45.2,0.515,0.0316,-1.01,1.13,1
45.2,0.965,0.609,-0.274,1.17,1
45.2,0.344,0.139,-0.056,0.376,1
45.3,-0.762,-0.224,0.545,0.963,1
45.3,-1.63,-0.346,0.609,1.78,1
45.3,-1.73,0.0744,0.327,1.76,1
45.3,-1.87,-0.0277,0.36,1.9,1
45.3,-1.89,-0.661,0.895,2.2,1
45.3,-0.963,-0.77,0.557,1.35,1
45.4,0.331,-0.0513,0.589,0.678,1
45.4,0.672,1.1,1.01,1.64,1
45.4,0.509,1.15,-0.625,1.4,1
45.4,0.613,1.06,-2.09,2.42,1
45.4,0.47,1.15,-2.0,2.35,1
45.5,-0.339,1.02,-0.909,1.41,1
45.5,-1.13,0.985,-0.164,1.51,1
45.5,-1.39,0.776,-0.435,1.65,1
45.5,-1.19,0.357,-0.433,1.32,1
45.5,-1.38,0.985,0.416,1.75,1
45.5,-1.39,1.55,0.764,2.21,1
45.6,-0.856,1.39,-0.0524,1.64,1
45.6,-0.362,0.987,-0.931,1.4,1
45.6,-0.0708,0.658,-1.37,1.52,1
45.6,0.214,0.299,-1.23,1.29,1
45.6,0.842,-0.0745,-0.714,1.11,1
45.7,1.65,0.282,-0.136,1.68,1
45.7,2.86,2.36,0.303,3.72,1
45.7,3.335,4.02,0.751,5.69,1
45.7,3.81,1.27,0.608,4.06,1
45.7,1.6,-2.04,-0.45,2.62,1
45.7,-0.529,-2.54,-0.692,2.68,1
45.8,-1.7,-1.43,0.552,2.29,1
45.8,-1.68,-0.0924,1.56,2.29,1
45.8,-1.14,0.49,2.13,2.46,1
45.8,-0.422,-0.725,1.52,1.73,1
45.8,0.143,-2.81,0.787,2.92,1
45.9,-0.509,-4.1,1.06,4.26,1
45.9,-0.19,-3.45,1.53,3.78,1
45.9,-0.311,-3.4,2.09,4.0,1
45.9,-0.321,-3.14,2.16,3.83,1
45.9,0.106,-2.76,1.32,3.06,1
46.0,0.809,-2.4,-0.0683,2.53,1
46.0,1.53,-2.03,-1.1,2.78,1
46.0,2.02,-1.39,-1.5,2.88,1
46.0,2.02,-0.399,-1.6,2.61,1
46.0,2.02,1.52,-0.135,2.53,1
46.0,1.51,3.03,1.72,3.8,1
46.1,0.0348,3.58,3.43,4.96,1
46.1,-1.24,2.87,3.52,4.71,1
46.1,-1.39,0.992,0.734,1.86,1
46.1,-0.224,-0.215,-1.68,1.71,1
46.1,1.5,1.0,-2.51,3.09,1
46.2,2.01,2.47,-0.308,3.2,1
46.2,0.707,0.445,0.65,1.06,1
46.2,0.509,-1.31,-0.171,1.41,1
46.2,0.0719,-0.984,-0.866,1.31,1
46.2,-0.194,-0.454,-1.7,1.77,1
46.2,-0.471,0.111,-1.55,1.62,1
46.3,-0.968,-0.605,0.375,1.2,1
46.3,-1.1,-1.17,2.36,2.85,1
46.3,-1.13,-0.739,2.62,2.94,1
46.3,-0.683,-0.147,1.18,1.37,1
46.3,-0.391,1.19,-0.258,1.28,1
46.4,-0.525,2.86,-1.34,3.2,1
46.4,-0.798,3.12,-1.86,3.72,1
46.4,-0.468,2.49,-2.02,3.24,1
46.4,-0.335,1.6,-1.69,2.35,1
46.4,-0.132,0.688,-0.895,1.14,1
46.4,-0.257,0.0402,-0.206,0.332,1
46.5,-0.658,-0.194,0.221,0.72,1
46.5,-0.879,-0.24,0.57,1.07,1
46.5,-0.813,0.0282,0.594,1.01,1
46.5,-0.692,0.518,0.0887,0.869,1
46.5,-0.743,0.811,-0.435,1.18,1
46.6,-0.364,1.2,-0.737,1.45,1
46.6,0.173,1.43,-1.11,1.81,1
46.6,0.577,1.99,-1.35,2.47,1
46.6,0.719,2.11,-1.73,2.82,1
46.6,0.921,0.996,-1.67,2.15,1
46.7,0.767,-0.47,-1.05,1.39,1
46.7,0.915,-0.792,-0.538,1.32,1
46.7,1.51,0.697,0.156,1.67,1
46.7,2.78,3.04,1.31,4.32,1
46.7,3.57,2.73,2.16,4.99,1
46.7,1.96,-0.765,0.996,2.33,1
46.8,-0.0203,-1.79,-1.15,2.12,1
46.8,-1.9,-1.24,-1.35,2.64,1
46.8,-2.65,0.0163,0.0257,2.65,1
46.8,-1.87,0.323,1.85,2.65,1
46.8,-0.769,-1.57,2.65,3.17,1
46.9,-0.407,-4.0,2.65,4.81,1
46.9,-0.916,-4.54,2.99,5.51,1
46.9,-0.878,-3.67,2.8,4.7,1
46.9,-0.788,-3.24,2.15,3.96,1
46.9,-0.42,-2.71,1.22,3.01,1
46.9,0.233,-2.38,0.223,2.4,1
47.0,1.24,-2.1,-0.525,2.49,1
47.0,2.09,-2.27,-0.897,3.21,1
47.0,2.46,-3.55,-0.603,4.36,1
47.0,2.92,-3.73,-0.573,4.77,1
47.0,3.66,1.79,1.01,4.2,1
47.1,2.66,1.62,1.49,5.484999999999999,1
47.1,-0.669,1.45,1.97,6.77,1
47.1,-2.46,1.28,-1.2,3.02,1
47.1,-1.46,0.758,-2.84,3.28,1
47.1,0.585,2.75,-2.37,3.68,1
47.1,1.26,2.82,-0.661,3.16,1
47.2,1.12,-1.14,0.724,1.75,1
47.2,1.14,-3.2,0.89,3.51,1
47.2,1.39,-0.665,0.551,1.64,1
47.2,0.18,1.12,-1.15,1.62,1
47.2,-0.794,0.875,-1.99,2.31,1
47.3,-1.28,-0.384,-1.5,2.01,1
47.3,-1.46,-0.528,0.344,1.59,1
47.3,-1.16,0.57,2.01,2.39,1
47.3,-0.781,0.775,2.15,2.42,1
47.3,-0.737,0.104,0.309,0.806,1
47.4,-0.486,0.309,-1.31,1.43,1
47.4,-0.398,0.565,-1.21,1.39,1
47.4,-0.282,0.429,-0.517,0.728,1
47.4,-0.294,0.244,-0.111,0.397,1
47.4,-0.163,0.506,-0.245,0.586,1
47.4,-0.57,0.568,-0.497,0.945,1
47.5,-0.967,0.602,-0.674,1.32,1
47.5,-0.909,0.663,-0.588,1.27,1
47.5,-0.766,0.919,0.114,1.2,1
47.5,-0.814,0.931,0.0911,1.24,1
47.5,-0.643,1.07,-0.362,1.3,1
47.6,-0.253,1.33,-0.818,1.59,1
47.6,-0.038,1.59,-1.14,1.95,1
47.6,0.122,1.01,-1.27,1.62,1
47.6,0.196,0.839,-0.753,1.14,1
47.6,0.989,0.765,-0.694,1.43,1
47.6,1.89,1.04,-0.599,2.24,1
47.7,2.52,2.08,0.3,3.28,1
47.7,3.04,2.19,1.23,3.94,1
47.7,2.76,0.0886,1.25,3.03,1
47.7,1.9,-0.732,-0.157,2.04,1
47.7,0.116,0.337,-1.54,1.58,1
47.8,-1.69,0.536,-1.54,2.35,1
47.8,-1.91,0.521,-1.02,2.23,1
47.8,-0.736,-0.284,1.61,1.79,1
47.8,0.733,-2.27,2.26,3.28,1
47.8,0.864,-3.92,3.34,5.22,1
47.8,0.199,-3.73,4.17,5.6,1
47.9,0.256,-2.79,3.78,4.71,1
47.9,0.13,-3.15,3.05,4.39,1
47.9,0.116,-3.52,1.99,4.05,1
47.9,0.265,-3.57,0.668,3.65,1
47.9,0.442,-3.35,-0.576,3.43,1
48.0,0.574,-3.09,-1.41,3.45,1
48.0,0.851,-2.71,-1.6,3.25,1
48.0,1.31,-1.85,-1.87,2.94,1
48.0,2.13,2.33,-2.13,3.81,1
48.0,2.59,3.5100000000000002,0.923,7.0,1
48.1,0.494,4.69,2.0615,6.48,1
48.1,-1.89,0.384,3.2,3.74,1
48.1,-1.92,-0.128,1.49,2.44,1
48.1,-0.712,0.853,-0.22,1.13,1
48.1,1.59,3.16,-1.66,3.9,1
48.1,1.93,2.75,-0.57,3.41,1
48.2,1.54,-0.595,-1.43,2.18,1
48.2,1.65,-2.02,-1.63,3.07,1
48.2,1.7,-1.17,-0.379,2.1,1
48.2,0.59,-0.88,1.08,1.51,1
48.2,-0.249,-0.729,1.62,1.8,1
48.3,-1.26,-0.601,1.2,1.84,1
48.3,-1.74,0.0593,1.32,2.18,1
48.3,-0.866,0.828,0.786,1.43,1
48.3,-0.642,1.42,-0.0356,1.56,1
48.3,-0.147,2.07,-1.12,2.36,1
48.3,0.0366,2.3,-1.09,2.54,1
48.4,-0.0052,2.11,-1.12,2.39,1
48.4,0.121,1.06,-1.2,1.61,1
48.4,0.202,0.0472,-0.882,0.906,1
48.4,-0.0648,-0.139,-0.391,0.42,1
48.4,-0.338,0.103,0.126,0.375,1
48.5,-0.698,0.189,0.395,0.824,1
48.5,-1.17,0.457,0.488,1.35,1
48.5,-1.65,0.722,0.323,1.83,1
48.5,-1.53,1.41,-0.45,2.13,1
48.5,-0.995,2.11,-1.78,2.94,1
48.5,-0.93,3.35,-3.46,4.91,1
48.6,-0.538,3.45,-3.72,5.1,1
48.6,0.374,1.16,-3.01,3.25,1
48.6,0.723,0.00672,-2.04,2.16,1
48.6,1.32,0.148,-0.0482,1.33,1
48.6,2.5,1.62,0.601,3.04,1
48.7,2.453333333333333,4.37,2.34,6.54,1
48.7,2.4066666666666667,2.31,3.24,6.05,1
48.7,2.36,-1.81,0.55,3.03,1
48.7,-0.832,-0.674,-1.95,2.22,1
48.7,-3.12,1.53,-1.23,3.69,1
48.8,-3.33,1.75,1.08,3.92,1
48.8,-1.96,-0.913,3.33,3.97,1
48.8,-0.321,-3.85,3.69,5.34,1
48.8,-0.492,-4.485,3.9299999999999997,7.68,1
48.8,-0.849,-5.12,4.17,6.66,1
48.8,-0.712,-4.38,3.64,5.74,1
48.9,-0.457,-4.06,2.67,4.88,1
48.9,-0.295,-3.92,1.53,4.22,1
48.9,0.47,-3.54,0.279,3.58,1
48.9,1.52,-3.1,-0.667,3.52,1
48.9,2.39,-2.59,-0.864,3.63,1
49.0,2.65,-1.98,-0.172,3.31,1
49.0,2.21,-1.68,1.07,2.98,1
49.0,2.14,0.0573,1.98,2.92,1
49.0,2.3,4.56,2.14,5.54,1
49.0,1.73,3.6766666666666663,2.6,6.025,1
49.0,-0.0453,2.793333333333333,1.5,6.51,1
49.1,-1.78,1.91,-1.26,2.9,1
49.1,-0.601,0.181,-2.69,2.76,1
49.1,0.685,-0.686,-1.81,2.05,1
49.1,1.71,0.0641,-0.67,1.84,1
49.1,2.04,2.38,1.09,3.32,1
49.2,0.572,0.976,2.08,2.37,1
49.2,-0.608,-1.06,-0.173,1.23,1
49.2,-1.5,0.331,-1.68,2.28,1
49.2,-1.33,1.58,-2.78,3.46,1
49.2,-1.34,1.16,-1.97,2.65,1
49.2,-1.17,0.0824,-0.685,1.36,1
49.3,-0.673,-0.228,1.26,1.44,1
49.3,-0.326,0.0217,2.0,2.02,1
49.3,-0.831,-0.508,1.28,1.61,1
49.3,-0.6,-0.781,-0.00717,0.985,1
49.3,-0.116,-0.214,-0.334,0.413,1
49.4,0.457,0.644,0.243,0.826,1
49.4,0.857,0.555,0.068,1.02,1
49.4,0.819,0.47,-1.02,1.39,1
49.4,0.62,0.857,-1.79,2.08,1
49.4,0.0592,1.26,-1.54,1.99,1
49.5,-0.706,1.14,-0.886,1.6,1
49.5,-1.12,0.891,-0.405,1.49,1
49.5,-0.949,1.18,0.229,1.53,1
49.5,-1.25,1.47,-0.522,2.0,1
49.5,-1.16,1.29,-0.783,1.9,1
49.5,-1.25,1.46,-1.4,2.38,1
49.6,-1.28,1.61,-1.49,2.54,1
49.6,-0.965,1.19,-0.751,1.71,1
49.6,-0.138,-0.0327,-0.0904,0.169,1
49.6,0.744,0.114,0.499,0.903,1
49.6,2.07,3.26,1.33,4.08,1
49.7,3.43,5.05,1.49,6.28,1
49.7,3.08,1.65,0.222,4.76,1
49.7,2.73,-1.14,-1.26,3.21,1
49.7,-0.105,-1.55,-2.46,2.91,1
49.7,-2.11,-1.25,-1.78,3.03,1
49.7,-1.58,-1.7,-0.0659,2.32,1
49.8,-1.04,-0.606,1.6170499999999999,4.69,1
49.8,-0.517,-1.57,3.3,3.69,1
49.8,-0.603,-3.4,4.09,5.35,1
49.8,0.207,-4.24,4.035,6.1,1
49.8,0.485,-4.1,3.98,5.73,1
49.9,0.514,-4.19,3.59,5.54,1
49.9,0.498,-4.11,2.6,4.89,1
49.9,0.844,-3.61,0.883,3.81,1
49.9,1.31,-2.8,-0.975,3.24,1
49.9,1.5,-1.7,-2.1,3.09,1
49.9,1.78,-0.783,-2.06,2.83,1
50.0,1.39,-0.672,-1.68,2.28,1
50.0,1.63,2.83,-0.713,3.34,1
50.0,2.12,3.93,1.39,6.62,1
50.0,0.532,5.03,1.81,5.38,1
50.0,-1.02,2.34,0.403,2.59,1
50.1,-1.04,0.387,-1.02,1.51,1
50.1,0.523,3.13,-1.47,3.49,1
50.1,0.491,3.07,0.754,3.2,1
50.1,-0.231,-1.2,0.397,1.29,1
50.1,-0.43,-2.28,-1.66,2.85,1
50.2,-0.0345,-0.346,-1.65,1.69,1
50.2,0.628,1.03,-0.832,1.47,1
50.2,0.353,0.665,-0.0534,0.755,1
50.2,-0.729,-0.301,0.545,0.959,1
50.2,-0.667,0.00751,-0.668,0.944,1
50.2,-1.22,0.361,-0.441,1.35,1
50.3,-1.48,0.796,-0.245,1.7,1
50.3,-1.18,0.541,-0.11,1.3,1
50.3,-0.702,-0.151,-0.0196,0.718,1
50.3,-0.385,-0.652,0.596,0.963,1
50.3,0.145,-0.901,0.353,0.978,1
50.4,0.696,-0.457,0.17,0.849,1
50.4,0.631,0.679,0.127,0.935,1
50.4,0.251,1.6,-0.839,1.82,1
50.4,0.275,1.72,-1.6,2.36,1
50.4,-0.152,1.19,-1.73,2.1,1
50.4,-0.546,0.675,-1.24,1.51,1
50.5,-0.789,0.838,-0.966,1.5,1
50.5,-0.966,0.53,-0.924,1.44,1
50.5,-1.03,0.296,-0.795,1.34,1
50.5,-1.39,-0.095,-0.472,1.47,1
50.5,-1.6,-0.267,-0.0049,1.63,1
50.6,-0.851,0.528,-0.361,1.06,1
50.6,0.921,3.95,-0.0991,4.06,1
50.6,2.58,3.9050000000000002,0.237,7.09,1
50.6,3.005,3.86,-0.0583,5.61,1
50.6,3.43,0.435,-0.403,3.48,1
50.6,1.65,0.561,-1.62,2.38,1
50.7,-0.569,0.675,-1.26,1.54,1
50.7,-1.38,0.259,0.185,1.41,1
50.7,-0.773,-1.54,2.54,3.07,1
50.7,-0.582,-3.04,4.28,5.28,1
50.7,0.0426,-4.27,2.6,5.01,1
50.8,0.231,-4.6,2.59,5.28,1
50.8,0.491,-4.05,3.33,5.26,1
50.8,0.0402,-3.98,3.83,5.52,1
50.8,-0.137,-3.77,3.81,5.36,1
50.8,-0.255,-3.37,2.88,4.44,1
50.9,0.201,-2.67,1.12,2.9,1
50.9,1.18,-1.85,-0.762,2.32,1
50.9,2.42,-1.17,-1.87,3.27,1
50.9,3.12,-0.826,-1.52,3.57,1
50.9,3.04,0.00101,-1.16,3.25,1
50.9,3.24,2.73,-1.04,4.36,1
51.0,2.22,2.51,0.582,6.09,1
51.0,-0.0785,2.29,2.8,6.97,1
51.0,-2.2,2.07,2.02,3.63,1
51.0,-1.75,-0.544,0.29,1.85,1
51.0,-0.299,-1.15,-1.28,1.74,1
51.1,1.42,0.333,-0.267,1.49,1
51.1,1.19,1.82,1.69,2.75,1
51.1,-0.513,0.465,1.52,1.67,1
51.1,-1.3,-0.967,-0.378,1.66,1
51.1,-1.12,-0.871,-2.2,2.62,1
51.1,-1.35,0.326,-2.02,2.45,1
51.2,-1.65,0.208,-1.59,2.31,1
51.2,-1.86,-0.103,-0.584,1.95,1
51.2,-0.246,0.221,0.324,0.463,1
51.2,0.773,0.484,1.91,2.11,1
51.2,0.917,0.548,0.889,1.39,1
51.3,0.982,0.506,-0.145,1.11,1
51.3,1.16,0.9,-0.204,1.49,1
51.3,1.21,1.26,-0.123,1.75,1
51.3,0.885,0.595,-0.737,1.3,1
51.3,0.735,0.0717,-1.01,1.25,1
51.3,0.206,0.0714,-0.577,0.617,1
51.4,-0.255,0.216,0.0435,0.337,1
51.4,-0.652,0.201,0.332,0.759,1
51.4,-0.915,0.0914,0.281,0.961,1
51.4,-1.08,0.483,0.303,1.22,1
51.4,-1.46,0.593,0.333,1.61,1
51.5,-1.33,0.857,0.101,1.59,1
51.5,-0.94,0.988,-0.142,1.37,1
51.5,-0.493,1.22,-0.262,1.34,1
51.5,0.186,1.2,-0.221,1.23,1
51.5,0.723,0.814,0.0982,1.09,1
51.6,0.885,0.542,0.385,1.11,1
51.6,0.946,0.195,0.147,0.977,1
51.6,0.845,-0.199,-0.24,0.901,1
51.6,0.646,-0.566,-0.423,0.958,1
51.6,0.775,-0.631,-0.477,1.11,1
51.6,0.866,0.0532,-0.273,0.909,1
51.7,1.05,1.48,-0.317,1.84,1
51.7,0.987,2.43,-0.783,2.74,1
51.7,0.292,1.54,-1.63,2.26,1
51.7,-0.627,0.95,-1.6,1.97,1
51.7,-1.26,0.767,-0.906,1.73,1
51.8,-1.49,0.421,-0.145,1.56,1
51.8,-0.376,0.315,0.132,0.508,1
51.8,0.695,-0.822,1.78,2.08,1
51.8,0.633,-3.98,2.98,5.02,1
51.8,0.107,-4.84,2.9,6.84,1
51.8,0.835,-5.7,2.8,6.41,1
51.9,1.04,-4.5,3.34,5.69,1
51.9,0.668,-3.7,3.67,5.26,1
51.9,0.676,-3.03,3.01,4.33,1
51.9,1.04,-2.23,1.28,2.77,1
51.9,1.52,-1.44,-0.736,2.22,1
52.0,1.96,-0.939,-1.77,2.81,1
52.0,2.52,2.0,-2.34,3.98,1
52.0,2.09,4.68,-1.43,5.33,1
52.0,0.068,4.85,0.635,4.89,1
52.0,-1.61,2.57,1.34,3.32,1
52.0,-1.13,0.537,0.318,1.29,1
52.1,0.153,-0.283,-0.65,0.726,1
52.1,1.97,1.67,-1.33,2.9,1
52.1,2.8,3.46,0.0554,4.45,1
52.1,1.29,-0.26,0.899,1.59,1
52.1,0.166,-1.8,-1.5,2.35,1
52.2,-0.105,-0.761,-1.84,2.0,1
52.2,-0.489,0.412,-1.57,1.7,1
52.2,-1.24,0.356,-0.73,1.49,1
52.2,-2.13,-0.876,0.693,2.41,1
52.2,-2.24,-0.819,1.36,2.74,1
52.2,-2.2,-0.548,2.8,3.61,1
52.3,-1.47,0.177,1.78,2.32,1
52.3,-0.5,1.79,-1.0,2.12,1
52.3,-0.17,2.85,-2.0,3.48,1
52.3,0.0383,2.94,-2.68,3.98,1
52.3,0.274,1.81,-2.61,3.19,1
52.4,0.474,0.669,-1.85,2.02,1
52.4,0.0394,0.259,-0.458,0.528,1
52.4,-0.256,0.4,-0.0927,0.484,1
52.4,-0.5,0.544,0.546,0.919,1
52.4,-0.657,0.947,0.216,1.17,1
52.5,-0.789,1.2,-0.856,1.68,1
52.5,-0.558,1.77,-1.68,2.5,1
52.5,-0.0159,1.85,-2.14,2.83,1
52.5,0.277,0.412,-1.58,1.66,1
52.5,0.521,-0.74,-1.04,1.38,1
52.5,1.06,0.194,-0.621,1.24,1
52.6,2.32,3.41,0.338,4.14,1
52.6,3.39,4.89,1.99,6.28,1
52.6,3.32,2.14,1.38,4.18,1
52.6,1.87,-0.365,-1.8,2.62,1
52.6,-0.0495,-1.64,-2.49,2.98,1
52.7,-0.91,-1.43,-1.17,2.06,1
52.7,-1.79,-0.888,3.32,3.87,1
52.7,0.458,-1.39,2.49,2.89,1
52.7,0.323,-2.0,2.74,5.03,1
52.7,-0.0856,-3.25,2.99,5.67,1
52.7,-1.07,-4.09,3.24,5.33,1
52.8,-1.8,-3.6,2.52,4.75,1
52.8,-1.8,-3.55,1.68,4.32,1
52.8,-1.58,-3.69,1.09,4.16,1
52.8,-0.842,-3.5,0.364,3.62,1
52.8,0.0529,-3.04,-0.479,3.08,1
52.9,0.687,-2.1,-0.954,2.41,1
52.9,1.34,-0.826,-0.788,1.76,1
52.9,2.23,-0.0665,0.116,2.23,1
52.9,3.4,2.89,-0.585,4.5,1
52.9,3.3,4.9,0.711,6.66,1
52.9,3.2,3.32,2.23,5.12,1
53.0,0.52,0.654,1.55,1.76,1
53.0,-0.338,2.65,0.367,2.7,1
53.0,-0.369,5.41,0.829,5.48,1
53.0,-0.906,1.13,-0.728,1.62,1
53.0,-0.324,-2.79,-2.89,4.03,1
53.1,0.705,-2.67,-2.59,3.79,1
53.1,2.04,-0.711,0.701,2.27,1
53.1,0.869,-0.943,1.4,1.9,1
53.1,0.0246,-1.64,0.913,1.88,1
53.1,-1.07,-1.55,0.998,2.13,1
53.2,-2.18,0.317,0.768,2.33,1
53.2,-2.66,2.96,-0.336,3.99,1
53.2,-1.93,4.55,-2.45,5.52,1
53.2,-0.651,4.42,-3.57,5.72,1
53.2,0.311,3.62,-2.48,4.4,1
53.2,0.989,1.44,-1.2,2.12,1
53.3,0.961,-0.298,-0.578,1.16,1
53.3,0.378,-0.891,0.375,1.04,1
53.3,-0.381,-1.14,0.495,1.3,1
53.3,-1.01,-1.05,0.748,1.63,1
53.3,-1.41,-0.81,0.952,1.89,1
53.4,-1.06,-0.607,0.369,1.27,1
53.4,-0.766,-0.0929,-0.153,0.787,1
53.4,-0.673,0.53,-0.172,0.874,1
53.4,-0.657,1.17,-0.448,1.41,1
53.4,-0.57,2.07,-1.35,2.54,1
53.4,-0.438,2.99,-2.31,3.81,1
53.5,-0.123,2.73,-2.42,3.65,1
53.5,0.476,0.921,-2.05,2.3,1
53.5,0.79,-0.396,-0.861,1.23,1
53.5,1.5,0.201,0.467,1.59,1
53.5,2.58,2.25,1.03,3.58,1
53.6,3.085,4.56,1.68,6.29,1
53.6,3.59,1.92,2.24,4.65,1
53.6,0.736,-2.59,0.369,2.71,1
53.6,-0.889,-3.06,-1.76,3.64,1
53.6,-2.21,-1.4,-1.37,2.95,1
53.6,-2.59,0.568,-0.336,2.68,1
53.7,-1.81,0.208,1.09,2.13,1
53.7,-0.448,-2.21,2.36,3.26,1
53.7,-0.178,-4.88,3.08,5.78,1
53.7,-0.933,-4.63,3.645,6.46,1
53.7,-1.43,-3.37,4.21,5.58,1
53.8,-1.44,-2.89,3.34,4.65,1
53.8,-1.21,-2.82,2.22,3.79,1
53.8,-0.257,-2.68,0.737,2.79,1
53.8,1.44,-2.16,-0.786,2.71,1
53.8,2.74,-1.46,-1.61,3.5,1
53.9,3.72,-1.01,-1.32,4.07,1
53.9,3.74,-0.279,-0.564,3.79,1
53.9,3.31,2.99,-0.0211,4.46,1
53.9,2.06,5.2,1.21,5.73,1
53.9,-0.171,4.42,0.8,4.5,1
53.9,-1.33,1.54,-0.92,2.23,1
54.0,-0.855,1.31,-1.93,2.48,1
54.0,-0.168,1.59,0.209,1.61,1
54.0,-0.00201,-0.33,1.12,1.17,1
54.0,0.13,-1.15,0.196,1.18,1
54.0,0.535,0.413,-1.11,1.3,1
54.1,0.36,1.87,-1.6,2.49,1
54.1,-0.532,1.67,-2.42,2.99,1
54.1,-1.24,1.02,-2.44,2.92,1
54.1,-1.25,0.38,-1.5,1.99,1
54.1,-0.714,-0.08,0.224,0.753,1
54.1,-0.704,-0.545,1.13,1.44,1
54.2,-0.573,-0.449,1.8,1.94,1
54.2,-0.663,-0.59,2.18,2.35,1
54.2,-0.768,-0.621,1.5,1.8,1
54.2,-0.81,-0.653,0.652,1.23,1
54.2,-0.364,-0.705,0.345,0.866,1
54.3,0.254,-0.832,0.338,0.933,1
54.3,0.727,-0.7,0.267,1.04,1
54.3,1.24,-0.301,-0.152,1.29,1
54.3,1.36,-0.143,-0.577,1.48,1
54.3,1.39,0.082,-1.01,1.72,1
54.3,1.18,0.557,-0.743,1.5,1
54.4,0.71,1.03,-0.166,1.26,1
54.4,0.0746,1.28,-0.217,1.3,1
54.4,-0.578,1.28,-0.415,1.47,1
54.4,-0.967,1.71,-0.657,2.07,1
54.4,-1.37,2.14,-0.425,2.57,1
54.5,-0.921,3.4,-0.5,3.55,1
54.5,-0.114,2.92,-0.924,3.07,1
54.5,0.917,0.829,-0.461,1.32,1
54.5,0.851,-1.02,0.0791,1.33,1
54.5,0.985,-0.728,0.0805,1.23,1
54.6,1.7,1.77,0.264,2.47,1
54.6,3.3,4.61,0.587,5.7,1
54.6,2.77,2.4,-0.0343,3.66,1
54.6,1.53,-1.02,-1.25,2.22,1
54.6,-0.0145,-2.42,-2.61,3.56,1
54.6,-0.833,-2.08,-1.33,2.6,1
54.7,-1.5,-1.47,0.982,2.32,1
54.7,-0.831,-1.3,2.43,2.88,1
54.7,-0.112,-1.5,3.34,3.67,1
54.7,-0.31,-2.47,3.8,4.55,1
54.7,-0.64,-2.75,3.6,4.58,1
54.8,-0.838,-2.63,2.72,3.88,1
54.8,-1.05,-2.56,1.72,3.25,1
54.8,-0.813,-2.62,0.711,2.84,1
54.8,0.0824,-2.75,-0.22,2.76,1
54.8,0.997,-2.73,-1.01,3.07,1
54.8,1.5,-2.29,-1.32,3.04,1
54.9,1.21,-2.07,-0.833,2.54,1
54.9,0.828,-2.42,-0.0508,2.56,1
54.9,0.769,-1.15,0.3,1.42,1
54.9,0.869,3.01,1.46,3.46,1
54.9,0.953,3.82,3.71,7.05,1
55.0,0.863,4.63,0.682,4.76,1
55.0,1.1,4.305,-1.06,5.97,1
55.0,0.737,3.98,-1.56,4.34,1
55.0,-0.327,-1.13,-3.01,3.24,1
55.0,0.0397,-2.92,-3.75,4.76,1
55.0,0.954,-2.14,-2.95,3.77,1
55.1,1.57,-0.418,-0.0382,1.62,1
55.1,1.24,0.418,2.29,2.64,1
55.1,-0.402,-0.791,1.86,2.06,1
55.1,-1.36,-0.842,-0.18,1.61,1
55.1,-1.88,0.49,-1.04,2.21,1
55.2,-2.36,1.21,-0.623,2.73,1
55.2,-1.87,1.11,0.45,2.22,1
55.2,-0.87,0.597,1.69,1.99,1
55.2,-0.117,0.0709,2.04,2.04,1
55.2,-0.0582,-0.124,0.983,0.993,1
55.3,0.403,0.382,-0.998,1.14,1
55.3,0.589,0.463,-1.8,1.95,1
55.3,0.721,0.493,-1.11,1.41,1
55.3,0.384,0.311,-0.393,0.631,1
55.3,-0.0135,0.237,-0.129,0.27,1
55.3,-0.111,0.0141,-0.338,0.357,1
55.4,-0.255,-0.0415,-0.282,0.382,1
55.4,-0.229,0.692,0.276,0.78,1
55.4,-0.387,1.13,0.458,1.28,1
55.4,-0.633,1.02,0.124,1.2,1
55.4,-0.518,0.971,-0.378,1.16,1
55.5,0.246,2.01,-1.43,2.48,1
55.5,1.17,2.48,-1.44,3.1,1
55.5,2.15,0.982,-1.03,2.58,1
55.5,1.89,-1.04,-0.596,2.24,1
55.5,0.979,-1.74,0.288,2.02,1
55.5,0.725,-1.41,0.816,1.79,1
55.6,0.989,-0.558,1.04,1.54,1
55.6,2.24,1.37,0.201,2.63,1
55.6,2.36,3.43,-0.873,4.25,1
55.6,-0.0652,3.37,-1.97,3.9,1
55.6,-1.7,0.986,-2.66,3.31,1
55.7,-2.64,-1.15,-1.35,3.18,1
55.7,-1.99,-1.71,0.947,2.79,1
55.7,-0.564,-1.84,3.61,4.09,1
55.7,0.266,-2.26,3.88,4.5,1
55.7,-0.119,-2.66,3.68,4.55,1
55.7,0.142,-2.71,2.77,3.88,1
55.8,0.319,-2.76,1.79,3.31,1
55.8,0.582,-2.81,1.05,3.05,1
55.8,0.829,-2.95,0.85,3.18,1
55.8,1.3,-3.21,0.732,3.54,1
55.8,1.53,-3.68,0.755,4.06,1
55.9,1.56,-3.35,0.763,3.77,1
55.9,1.68,-1.92,0.535,2.6,1
55.9,2.38,2.67,0.919,3.69,1
55.9,3.01,5.33,1.23,6.24,1
55.9,2.89,3.84,0.855,4.88,1
56.0,0.785,0.896,-0.273,1.22,1
56.0,-0.616,0.147,-1.2,1.36,1
56.0,0.847,2.98,-1.21,3.32,1
56.0,1.25,2.41,-0.0576,6.34,1
56.0,-0.781,1.84,0.214,2.01,1
56.0,-0.509,-1.93,-1.31,2.39,1
56.1,-0.319,-2.13,-1.0,2.37,1
56.1,-0.495,-0.833,-0.67,1.18,1
56.1,-1.38,0.586,-0.678,1.64,1
56.1,-2.39,0.143,-0.88,2.55,1
56.1,-2.44,-0.283,-0.523,2.51,1
56.2,-2.0,0.0545,0.102,2.0,1
56.2,-1.07,0.726,-0.143,1.3,1
56.2,-0.0658,0.712,-0.628,0.952,1
56.2,0.604,0.373,-0.857,1.11,1
56.2,0.867,0.823,-0.672,1.37,1
56.2,1.0,1.11,-0.454,1.56,1
56.3,1.16,0.913,-0.827,1.69,1
56.3,1.15,0.717,-1.44,1.98,1
56.3,0.792,0.307,-1.51,1.73,1
56.3,0.248,0.174,-0.586,0.659,1
56.3,-0.185,0.449,0.339,0.593,1
56.4,-0.623,0.948,0.44,1.22,1
56.4,-1.05,1.36,-0.408,1.76,1
56.4,-1.09,1.93,-0.744,2.33,1
56.4,-1.13,1.93,-0.633,2.32,1
56.4,-1.18,1.92,-0.361,2.28,1
56.4,-1.25,1.48,-0.105,1.94,1
56.5,-0.531,0.537,-0.134,0.767,1
56.5,0.599,-0.685,-0.181,0.927,1
56.5,1.81,-0.338,0.542,1.92,1
56.5,3.25,2.25,1.28,4.15,1
56.5,3.11,3.73,0.871,6.36,1
56.6,2.97,0.98,0.274,5.5,1
56.6,2.83,-1.41,-2.22,3.86,1
56.6,-1.21,-1.69,-3.49,4.06,1
56.6,-2.6,-0.984,-3.41,4.4,1
56.6,-2.58,0.762,0.783,2.8,1
56.7,-0.713,-1.27,2.99,3.33,1
56.7,-0.364,-3.76,3.44,5.11,1
56.7,-1.83,-4.4350000000000005,4.01,7.41,1
56.7,-1.72,-5.11,4.05,6.74,1
56.7,-1.95,-4.49,3.92,6.28,1
56.7,-1.63,-3.87,3.56,5.5,1
56.8,-1.06,-3.02,2.37,3.98,1
56.8,-0.127,-2.23,0.192,2.24,1
56.8,1.13,-2.07,-1.86,3.01,1
56.8,2.57,-1.38,-2.84,4.07,1
56.8,3.69,0.078,-2.49,4.46,1
56.9,2.97,2.15,-1.61,4.0,1
56.9,1.33,4.82,-0.654,5.04,1
56.9,-0.725,4.15,0.958,6.43,1
56.9,-0.935,3.4800000000000004,2.53,4.965,1
56.9,-2.0,2.81,-0.631,3.5,1
56.9,-0.991,-2.76,-0.822,3.05,1
57.0,0.235,-4.1,-1.24,4.29,1
57.0,1.27,-2.65,-1.22,3.18,1
57.0,2.34,0.488,-0.0149,2.39,1
57.0,3.04,1.1,2.32,3.98,1
57.0,0.736,-1.84,0.933,2.19,1
57.1,-1.11,-1.44,-0.607,1.91,1
57.1,-2.26,-0.449,-0.888,2.47,1
57.1,-2.95,0.117,0.428,2.98,1
57.1,-2.76,0.628,1.39,3.15,1
57.1,-1.11,1.11,2.01,2.55,1
57.1,0.534,1.67,1.06,2.05,1
57.2,0.992,2.74,-0.797,3.02,1
57.2,0.448,2.87,-2.8,4.03,1
57.2,-0.179,2.1,-2.95,3.63,1
57.2,-0.137,0.76,-1.81,1.97,1
57.2,-0.135,-0.215,-1.3,1.32,1
57.3,-0.0428,-0.366,-0.71,0.8,1
57.3,-0.211,-0.246,0.907,0.964,1
57.3,-0.566,-0.145,1.62,1.72,1
57.3,-1.11,0.348,0.58,1.3,1
57.3,-1.59,1.04,-0.695,2.02,1
57.4,-1.77,2.19,-1.44,3.16,1
57.4,-0.433,2.15,-2.02,2.98,1
57.4,0.893,1.47,-1.73,2.44,1
57.4,1.43,0.192,-1.04,1.78,1
57.4,0.569,-1.45,-0.421,1.61,1
57.4,-0.0682,-1.31,0.0503,1.31,1
57.5,0.531,1.48,-0.132,1.58,1
57.5,2.88,1.3233333333333333,-0.302,6.91,1
57.5,3.61,1.1666666666666667,0.537,6.82,1
57.5,2.69,1.01,-3.2,4.3,1
57.5,0.922,-2.16,-3.39,4.12,1
57.6,0.0647,-2.64,-0.347,2.66,1
57.6,0.34,-1.51,2.64,3.06,1
57.6,1.05,-1.22,2.94,4.91,1
57.6,1.19,-2.65,3.24,5.49,1
57.6,0.231,-3.5,3.54,4.98,1
57.6,-1.29,-3.13,2.55,4.24,1
57.7,-1.55,-2.75,1.73,3.6,1
57.7,-1.14,-2.85,0.808,3.18,1
57.7,-0.414,-3.14,0.597,3.22,1
57.7,0.318,-3.17,0.788,3.28,1
57.7,0.934,-3.08,0.765,3.31,1
57.8,1.17,-2.91,0.403,3.16,1
57.8,1.27,-2.38,-0.194,2.71,1
57.8,1.55,-0.679,-0.793,1.87,1
57.8,2.14,4.41,-0.544,4.93,1
57.8,1.71,3.725,-0.246,6.41,1
57.8,1.56,3.04,0.422,3.44,1
57.9,1.37,-0.0663,0.565,1.49,1
57.9,1.45,0.829,-0.768,1.84,1
57.9,2.93,4.48,-0.31,5.36,1
57.9,1.05,1.03,0.575,1.58,1
57.9,-0.423,-1.76,-0.641,1.92,1
58.0,-0.98,-2.49,-0.707,2.77,1
58.0,-0.563,-0.874,-0.281,1.08,1
58.0,-0.591,1.35,0.942,1.75,1
58.0,-1.69,1.0,1.11,2.26,1
58.0,-2.25,0.202,0.079,2.26,1
58.1,-2.06,0.0435,-0.679,2.17,1
58.1,-1.64,0.104,-0.47,1.71,1
58.1,-0.714,-0.00482,-0.532,0.89,1
58.1,0.348,-0.889,0.367,1.02,1
58.1,1.34,-1.55,1.04,2.3,1
58.1,2.26,-0.797,1.35,2.75,1
58.2,1.68,1.97,0.634,2.67,1
58.2,0.415,3.43,-2.39,4.2,1
58.2,0.149,2.06,-2.825,5.12,1
58.2,0.00884,1.26,-3.26,3.49,1
58.2,-0.581,1.4,-0.754,1.7,1
58.3,-1.0,1.37,0.328,1.73,1
58.3,-1.08,1.41,0.0951,1.78,1
58.3,-1.07,1.55,-1.04,2.15,1
58.3,-0.409,1.78,-1.92,2.65,1
58.3,-0.343,1.44,-2.22,2.67,1
58.3,-0.712,0.386,-1.71,1.89,1
58.4,-0.691,-0.123,-0.174,0.723,1
58.4,0.148,-0.0775,0.474,0.503,1
58.4,1.5,2.24,0.642,2.77,1
58.4,3.65,3.7600000000000002,1.46,7.77,1
58.4,3.0999999999999996,5.28,1.56,5.2749999999999995,1
58.5,2.55,-1.01,0.455,2.78,1
58.5,-1.04,-1.83,-3.22,3.85,1
58.5,-2.72,-2.41,-0.338,3.65,1
58.5,-2.46,-2.2,0.585,3.35,1
58.5,-2.54,-2.07,1.99,3.84,1
58.5,-1.04,-3.35,2.224,5.9,1
58.6,-0.115,-4.17,2.458,7.57,1
58.6,0.128,-3.19,2.692,7.76,1
58.6,0.504,-2.89,2.926,6.27,1
58.6,0.705,-3.26,3.16,4.6,1
58.6,0.687,-3.22,0.729,3.37,1
58.7,2.03,-2.93,-1.46,3.86,1
58.7,2.3833333333333333,-3.16,-3.04,5.87,1
58.7,2.7366666666666664,-3.57,-2.7,5.91,1
58.7,3.09,-3.28,-1.16,4.66,1
58.7,2.55,-0.39,0.992,2.76,1
58.8,2.92,1.5499999999999998,2.76,6.97,1
58.8,3.33,3.4899999999999993,1.7,6.805,1
58.8,3.74,5.43,-0.758,6.64,1
58.8,-1.26,2.34,-0.706,2.75,1
58.8,-3.16,0.737,-0.803,3.34,1
58.8,-1.27,0.503,-0.084,1.37,1
58.9,-0.222,-0.43,0.00792,0.484,1
58.9,0.298,-0.709,2.04,2.18,1
58.9,0.381,0.369,3.6,3.64,1
58.9,0.0157,0.855,1.76,1.96,1
58.9,-0.75,-0.101,-1.79,1.94,1
59.0,-1.0,0.271,-4.11,4.24,1
59.0,-0.759,0.425,-3.42,3.53,1
59.0,-1.34,-0.343,-0.166,1.4,1
59.0,-1.57,-0.633,1.55,2.29,1
59.0,-1.55,-0.494,1.43,2.17,1
59.0,-1.47,-0.285,1.52,2.13,1
59.1,-0.632,0.253,-0.538,0.868,1
59.1,0.664,0.875,-0.627,1.26,1
59.1,0.818,1.63,-0.272,1.84,1
59.1,0.334,1.29,-0.88,1.6,1
59.1,0.085,0.729,-1.93,2.06,1
59.2,-0.113,0.683,-1.55,1.7,1
59.2,-0.351,0.623,-0.655,0.969,1
59.2,-0.886,0.501,-0.204,1.04,1
59.2,-0.901,0.402,0.393,1.06,1
59.2,-0.409,0.189,0.549,0.71,1
59.2,-0.0338,0.646,0.33,0.726,1
59.3,-0.159,1.44,0.741,1.63,1
59.3,-0.532,1.4,0.184,1.51,1
59.3,-0.925,1.55,-0.805,1.98,1
59.3,-1.06,1.49,-0.554,1.91,1
59.3,0.0236,1.41,-0.438,1.48,1
59.4,1.38,2.07,-0.066,2.49,1
59.4,2.72,3.49,0.954,4.52,1
59.4,2.85,2.56,1.17,4.01,1
59.4,1.11,2.25,-0.404,2.54,1
59.4,-1.79,1.38,-1.78,2.87,1
59.5,-3.3,0.165,-1.69,3.71,1
59.5,-1.82,-0.645,-1.65,2.54,1
59.5,1.38,-2.74,1.2,3.3,1
59.5,1.59,-3.5900000000000003,3.36,7.17,1
59.5,0.372,-4.44,3.94,7.275,1
59.5,0.63,-5.29,3.522,7.38,1
59.6,-0.127,-3.33,3.104,6.79,1
59.6,-0.345,-2.13,2.686,6.37,1
59.6,-0.00446,-1.94,2.268,4.89,1
59.6,0.364,-2.26,1.85,2.94,1
59.6,0.747,-2.56,-0.819,2.79,1
59.7,1.87,-2.56,-2.73,4.18,1
59.7,2.66,-2.12,-3.17,4.65,1
59.7,2.37,-2.85,-2.92,4.72,1
59.7,1.72,-2.59,-0.414,3.13,1
59.7,2.73,-1.7474999999999998,1.06,6.83,1
59.7,2.59,-0.9049999999999998,3.74,7.045,1
59.8,2.45,-0.0625,1.9,7.26,1
59.8,-1.08,0.78,-1.75,2.2,1
59.8,-2.31,-0.0848,-2.16,3.16,1
59.8,-0.978,-0.0474,-0.857,1.3,1
59.8,-0.0319,-0.659,-0.589,0.884,1
59.9,0.708,-0.062,-0.305,0.773,1
59.9,1.68,2.05,1.85,3.23,1
59.9,1.24,0.937,1.68,2.29,1
59.9,-0.688,-0.757,-0.704,1.24,1
59.9,-1.84,-0.991,-2.31,3.11,1
59.9,-1.88,-0.582,-2.02,2.82,1
60.0,-1.94,0.126,-0.376,1.98,1
60.0,-2.01,-0.00737,1.58,2.56,1
60.0,-1.47,-0.35,1.86,2.4,1
60.0,-0.707,0.12,1.29,1.48,1
60.0,-0.0596,0.917,-0.176,0.935,1
60.1,0.1,1.27,-1.06,1.66,1
60.1,-0.221,1.72,-0.978,1.99,1
60.1,0.0425,1.22,-0.917,1.53,1
60.1,0.189,0.324,-1.05,1.12,1
60.1,-0.16,-0.0191,-0.847,0.862,1
60.1,-0.812,-0.233,-0.247,0.88,1
60.2,-0.885,-0.162,-0.176,0.917,1
60.2,-0.963,-0.268,-0.133,1.01,1
60.2,-1.43,0.157,0.24,1.46,1
60.2,-1.57,0.715,1.3,2.16,1
60.2,-1.17,1.33,1.47,2.3,1
60.3,0.163,2.2,0.151,2.21,1
60.3,0.696,2.11,-0.758,2.35,1
60.3,1.24,1.71,-1.53,2.61,1
60.3,1.38,1.62,-1.57,2.64,1
60.3,1.48,1.21,-1.39,2.36,1
60.4,1.57,0.224,-1.24,2.02,1
60.4,1.25,-0.782,-1.14,1.86,1
60.4,1.76,-0.14,-0.838,1.96,1
60.4,2.63,1.29,-0.328,2.95,1
60.4,1.66,1.12,-0.219,2.01,1
60.4,-0.211,0.0526,-0.901,0.927,1
60.5,-0.963,-0.54,-0.983,1.48,1
60.5,-1.13,-0.564,0.0903,1.27,1
60.5,-0.766,-0.235,1.75,1.92,1
60.5,0.362,-1.04,3.37,3.55,1
60.5,1.39,-2.77,4.24,5.25,1
60.6,1.63,-3.59,3.82,5.49,1
60.6,1.23,-3.67,2.59,4.66,1
60.6,0.638,-3.34,1.29,3.63,1
60.6,0.292,-2.76,0.0722,2.78,1
60.6,0.327,-2.38,-1.0,2.6,1
60.6,0.59,-2.59,-1.81,3.22,1
60.7,0.814,-2.88,-2.15,3.69,1
60.7,0.908,-2.45,-1.73,3.13,1
60.7,1.01,-0.787,-0.957,1.6,1
60.7,1.18,2.63,0.727,2.97,1
60.7,1.13,3.42,2.82,4.58,1
60.8,0.966,1.31,2.77,3.21,1
60.8,1.34,1.57,1.92,2.83,1
60.8,1.7,5.49,-0.272,5.75,1
60.8,0.985,3.335,-2.75,6.63,1
60.8,-0.594,1.18,-4.26,4.46,1
60.8,-1.36,-2.3,-3.83,4.67,1
60.9,-0.564,-2.45,-2.31,3.41,1
60.9,0.42,-0.784,-0.21,0.914,1
60.9,1.93,0.929,1.86,2.84,1
60.9,0.671,-1.18,3.28,3.56,1
60.9,-0.894,-1.29,0.206,1.58,1
61.0,-2.21,0.0888,-1.17,2.5,1
61.0,-2.86,0.821,-1.37,3.27,1
61.0,-3.08,0.741,-0.0436,3.16,1
61.0,-2.54,-0.0629,1.03,2.74,1
61.0,-1.78,-0.831,1.28,2.34,1
61.1,-0.742,-0.806,0.798,1.36,1
61.1,0.146,0.183,0.248,0.341,1
61.1,0.546,1.47,-0.398,1.62,1
61.1,0.709,2.36,-1.73,3.01,1
61.1,0.521,1.64,-2.13,2.74,1
61.1,-0.137,0.709,-1.87,2.01,1
61.2,-0.92,0.456,-0.753,1.27,1
61.2,-1.35,0.533,-0.487,1.53,1
61.2,-1.11,0.611,-0.723,1.46,1
61.2,-0.607,1.0,-0.828,1.44,1
61.2,-0.718,1.29,-0.401,1.53,1
61.3,-1.01,1.51,-0.441,1.87,1
61.3,-0.637,1.87,-1.03,2.23,1
61.3,-0.2,1.64,-1.46,2.21,1
61.3,0.0153,1.05,-1.26,1.64,1
61.3,0.506,0.374,-0.159,0.649,1
61.3,0.866,0.116,0.941,1.28,1
61.4,1.3,-0.00866,1.23,1.79,1
61.4,2.18,1.17,1.26,2.78,1
61.4,3.0,3.23,1.53,4.67,1
61.4,2.9,2.44,0.534,4.67,1
61.4,2.8,-0.935,-1.22,3.19,1
61.5,1.16,-2.03,-2.8,3.65,1
61.5,-0.407,-2.57,-1.78,3.15,1
61.5,-1.94,-2.63,0.0128,3.27,1
61.5,-1.12,-1.26,2.04,2.65,1
61.5,-0.119,-0.729,3.54,3.61,1
61.5,-0.242,-0.807,3.52,3.62,1
61.6,-0.322,-1.35,2.94,3.25,1
61.6,-0.351,-2.21,2.15,3.1,1
61.6,-0.234,-2.25,1.15,2.54,1
61.6,-0.429,-1.86,0.882,2.11,1
61.6,-0.891,-2.2,0.633,2.45,1
61.7,-0.977,-2.57,-0.126,2.75,1
61.7,-0.547,-2.57,-1.22,2.89,1
61.7,0.0974,-2.31,-2.09,3.11,1
61.7,0.737,-2.36,-2.32,3.39,1
61.7,1.08,-2.94,-1.72,3.57,1
61.8,1.24,-2.87,0.0356,3.12,1
61.8,1.6,0.206,2.04,2.6,1
61.8,1.8,3.58,4.1,5.73,1
61.8,1.71,4.31,4.1,6.19,1
61.8,0.899,3.34,1.73,3.87,1
61.8,-0.93,2.73,-0.611,2.95,1
61.9,-0.408,4.44,-2.49,5.11,1
61.9,-0.22,3.48,-2.5,4.28,1
61.9,0.291,-0.781,-2.79,2.91,1
61.9,0.595,-2.92,-2.57,3.93,1
61.9,1.85,-1.65,-1.06,2.69,1
62.0,2.3,-0.148,-0.338,2.33,1
62.0,0.935,0.692,0.243,1.19,1
62.0,-1.33,0.53,0.202,1.45,1
62.0,-3.38,0.334,-0.29,3.41,1
62.0,-3.26,0.577,0.225,3.79,1
62.0,-3.14,0.565,1.51,3.53,1
62.1,-2.15,0.277,1.42,2.59,1
62.1,-0.926,-0.337,-0.177,1.0,1
62.1,0.159,-0.685,-0.321,0.773,1
62.1,0.632,-0.257,0.332,0.759,1
62.1,0.345,0.525,0.176,0.652,1
62.2,0.261,1.04,-0.716,1.29,1
62.2,0.149,1.2,-1.5,1.93,1
62.2,0.0937,1.35,-1.59,2.09,1
62.2,-0.166,1.08,-1.44,1.81,1
62.2,-0.171,1.19,-1.43,1.87,1
62.2,-0.046,1.48,-1.16,1.88,1
62.3,0.178,1.56,-0.781,1.75,1
62.3,0.0124,1.38,-0.982,1.7,1
62.3,-0.11,1.38,-1.04,1.73,1
62.3,-0.254,1.02,-0.533,1.18,1
62.3,0.0394,1.04,-0.218,1.06,1
62.4,0.623,2.7,0.546,2.82,1
62.4,1.49,4.04,1.59,4.59,1
62.4,2.84,2.2,1.83,4.03,1
62.4,2.88,-0.307,0.493,2.94,1
62.4,1.94,-1.13,-1.25,2.57,1
62.5,0.839,-1.21,-1.05,1.81,1
62.5,-0.0255,-1.61,-0.355,1.65,1
62.5,-0.713,-1.79,0.757,2.07,1
62.5,-0.684,-2.04,1.94,2.9,1
62.5,-0.799,-2.81,2.6,3.91,1
62.5,-0.654,-3.45,1.89,3.99,1
62.6,-1.27,-3.8,2.83,4.9,1
62.6,-1.2,-3.35,3.77,5.18,1
62.6,-1.36,-2.87,3.44,4.68,1
62.6,-1.38,-2.42,2.77,3.93,1
62.6,-0.693,-2.4,1.33,2.83,1
62.7,0.3,-2.56,-0.719,2.67,1
62.7,1.36,-1.85,-2.25,3.22,1
62.7,2.56,0.0225,-2.7,3.72,1
62.7,2.91,0.231,-1.16,3.14,1
62.7,2.95,0.525,-0.417,3.02,1
62.7,2.02,2.31,2.22,3.79,1
62.8,0.867,3.24,3.38,4.77,1
62.8,0.116,2.1113333333333335,2.21,6.97,1
62.8,-1.52,0.9826666666666668,-0.144,6.66,1
62.8,-1.3,-0.146,-1.97,2.36,1
62.8,-0.222,-3.95,-3.38,5.2,1
62.9,0.31,-4.18,-2.33,4.8,1
62.9,1.88,-1.08,0.604,2.25,1
62.9,2.22,1.66,2.06,3.45,1
62.9,-0.116,0.176,2.22,2.23,1
62.9,-0.951,-0.321,-0.199,1.02,1
62.9,-1.32,-0.522,-0.815,1.64,1
63.0,-1.81,-0.0317,0.149,1.82,1
63.0,-1.64,1.4,1.21,2.47,1
63.0,-0.343,2.22,1.02,2.47,1
63.0,0.592,2.17,-0.463,2.29,1
63.0,0.685,2.07,-1.34,2.56,1
63.1,0.231,1.57,-1.48,2.17,1
63.1,-0.081,0.623,-1.01,1.19,1
63.1,-0.371,0.0423,-0.353,0.514,1
63.1,-0.617,-0.143,0.185,0.66,1
63.1,-0.797,-0.388,0.602,1.07,1
63.2,-0.585,-0.346,0.693,0.97,1
63.2,-0.184,0.0458,0.071,0.202,1
63.2,0.101,0.395,-0.516,0.658,1
63.2,0.262,0.517,-0.693,0.903,1
63.2,0.358,0.798,-0.739,1.14,1
63.2,0.218,1.16,-0.659,1.35,1
63.3,0.381,1.72,-0.85,1.96,1
63.3,0.52,1.57,-0.518,1.73,1
63.3,0.734,0.305,-0.534,0.958,1
63.3,0.799,-0.22,-0.334,0.893,1
63.3,1.07,0.0781,0.311,1.12,1
63.4,1.43,1.29,0.771,2.07,1
63.4,1.94,3.19,0.914,3.85,1
63.4,1.94,1.95,0.687,2.83,1
63.4,1.63,-0.103,-0.932,1.88,1
63.4,0.284,0.0676,-2.29,2.31,1
63.4,-0.958,0.512,-1.97,2.25,1
63.5,-1.13,0.71,-0.852,1.58,1
63.5,-0.824,0.00303,1.39,1.62,1
63.5,0.342,-2.32,3.36,4.1,1
63.5,0.495,-4.75,4.13,6.31,1
63.5,0.0254,-5.6,4.13,6.96,1
63.6,-0.216,-4.84,3.7766666666666664,7.03,1
63.6,-0.351,-3.29,3.4233333333333333,5.66,1
63.6,0.0807,-2.2,3.07,3.77,1
63.6,0.495,-1.74,1.36,2.26,1
63.6,1.45,-1.92,-0.814,2.54,1
63.6,2.93,-2.99,-1.93,4.62,1
63.7,3.66,-3.23,-1.24,5.04,1
63.7,3.5300000000000002,0.198,-1.73,4.84,1
63.7,3.4,3.56,0.472,6.16,1
63.7,3.27,4.85,1.626,7.49,1
63.7,-0.49,3.26,2.78,4.31,1
63.8,-3.14,0.742,-0.2,3.23,1
63.8,-1.95,2.48,-3.01,4.36,1
63.8,-1.59,3.04,-0.936,6.9,1
63.8,-1.89,3.6,2.07,4.56,1
63.8,-2.25,-2.28,0.965,3.34,1
63.9,-1.47,-2.97,-0.196,3.32,1
63.9,-0.455,-0.955,-1.54,1.87,1
63.9,0.642,1.15,-2.83,3.12,1
63.9,-0.111,0.556,-0.9,1.06,1
63.9,0.887,0.67,0.111,1.12,1
63.9,1.62,0.525,0.474,1.76,1
64.0,0.382,-0.409,-0.837,1.01,1
64.0,-0.284,0.757,-0.809,1.14,1
64.0,-0.748,1.51,-0.134,1.69,1
64.0,-0.712,0.681,0.0667,0.988,1
64.0,-0.442,0.244,0.515,0.722,1
64.1,-0.176,0.0509,0.807,0.827,1
64.1,0.526,0.0138,0.481,0.713,1
64.1,0.685,0.0527,-0.455,0.824,1
64.1,0.622,-0.17,0.105,0.653,1
64.1,-0.0473,-0.83,0.876,1.21,1
64.1,-0.442,-0.868,1.17,1.52,1
64.2,-0.424,-0.432,1.18,1.33,1
64.2,-0.453,-0.0983,0.868,0.984,1
64.2,-0.236,0.0548,0.467,0.526,1
64.2,-0.0732,0.421,0.427,0.604,1
64.2,0.0921,0.484,0.796,0.936,1
64.3,0.028,0.376,0.633,0.737,1
64.3,-0.211,0.614,0.419,0.772,1
64.3,-0.21,0.877,0.364,0.973,1
64.3,-0.00233,0.978,-0.397,1.06,1
64.3,0.51,1.47,-1.23,1.99,1
64.3,0.989,1.68,-1.35,2.37,1
64.4,1.15,0.356,-1.3,1.77,1
64.4,0.769,-1.68,-1.07,2.13,1
64.4,0.743,-2.35,-0.953,2.64,1
64.4,1.41,-1.1,-1.26,2.19,1
64.4,2.11,2.4,-2.04,3.79,1
64.5,-0.344,5.54,-1.06,5.66,1
64.5,-1.63,2.99,-1.7,3.8,1
64.5,-2.0,-1.41,-1.4,2.82,1
64.5,-2.02,-3.17,0.902,3.86,1
64.5,-0.768,-3.21,4.25,5.38,1
64.6,0.285,-3.11,3.83,6.46,1
64.6,1.55,-3.07,3.41,5.9,1
64.6,2.04,-3.37,2.99,4.94,1
64.6,2.19,-2.82,1.04,3.72,1
64.6,2.19,-1.37,-0.749,2.69,1
64.6,2.43,-0.792,-2.55,3.62,1
64.7,2.95,-1.7,-3.29,4.74,1
64.7,2.6,-2.44,-2.97,4.64,1
64.7,2.14,-2.11,-1.4,3.32,1
64.7,2.0,-0.253,0.319,2.04,1
64.7,2.26,0.806,2.48,3.45,1
64.8,2.5,0.718,4.03,4.8,1
64.8,1.82,2.74,1.61,3.66,1
64.8,0.711,2.486666666666667,-0.573,4.206666666666667,1
64.8,-0.528,2.2333333333333334,-2.68,4.753333333333333,1
64.8,-3.27,1.98,-3.66,5.3,1
64.8,-2.03,-2.52,-3.52,4.78,1
64.9,-0.79,-3.34,-1.61,3.79,1
64.9,0.152,-2.65,1.75,3.18,1
64.9,0.183,-1.49,2.45,5.51,1
64.9,-1.18,-1.31,3.15,3.61,1
64.9,-1.68,0.669,-1.36,2.27,1
65.0,-2.77,0.736,-4.01,4.93,1
65.0,-3.31,0.235,-4.19,5.35,1
65.0,-3.09,0.121,-1.77,3.57,1
65.0,-2.84,-0.361,1.74,3.35,1
65.0,-1.85,0.304,2.81,3.38,1
65.0,-0.945,1.92,0.615,2.23,1
65.1,-0.0798,3.21,-1.86,3.71,1
65.1,0.379,3.04,-3.34,4.53,1
65.1,0.183,1.91,-3.44,3.94,1
65.1,-0.0509,1.06,-2.05,2.31,1
65.1,-0.346,0.571,0.367,0.762,1
65.2,-0.534,0.447,0.501,0.858,1
65.2,-0.624,0.858,0.291,1.1,1
65.2,-1.04,1.03,-0.299,1.5,1
65.2,-1.52,0.759,-0.604,1.81,1
65.2,-1.76,0.744,-1.06,2.18,1
65.3,-1.3,0.924,-1.62,2.27,1
65.3,-0.604,0.81,-1.25,1.61,1
65.3,0.677,0.76,-0.464,1.12,1
65.3,2.3,1.81,-0.228,2.93,1
65.3,2.81,4.35,1.27,5.96,1
65.3,3.3200000000000003,4.01,2.3,7.15,1
65.4,3.83,-1.15,1.25,4.19,1
65.4,1.01,-3.47,-2.12,4.19,1
65.4,-0.745,-2.59,-2.2,3.48,1
65.4,-1.68,-0.561,-0.961,2.02,1
65.4,-1.14,0.457,1.23,1.74,1
65.5,-0.943,-1.43,2.82,3.3,1
65.5,-0.219,-3.2,2.94,4.35,1
65.5,-0.0921,-4.02,3.74,5.49,1
65.5,-0.35,-3.33,4.05,5.25,1
65.5,-0.318,-3.05,3.52,4.67,1
65.5,-0.0277,-2.77,2.67,3.85,1
65.6,0.463,-2.43,1.14,2.72,1
65.6,0.969,-2.22,-0.416,2.46,1
65.6,1.39,-2.09,-1.37,2.86,1
65.6,1.3,-2.31,-1.61,3.1,1
65.6,0.952,-2.65,-1.69,3.28,1
65.7,0.62,-1.42,-1.91,2.46,1
65.7,0.62,3.09,-0.174,3.16,1
65.7,-0.231,3.445,1.96,6.43,1
65.7,-1.34,3.8,1.76,4.39,1
65.7,-0.741,3.01,0.43,3.13,1
65.7,1.05,5.0,-0.211,5.11,1
65.8,0.713,2.1,-0.16,2.22,1
65.8,0.69,-2.02,-0.169,2.14,1
65.8,1.02,-3.26,-1.36,3.68,1
65.8,1.37,-2.58,-2.07,3.58,1
65.8,1.48,-0.161,-0.887,1.73,1
65.9,1.53,0.805,0.0705,1.73,1
65.9,0.203,-0.732,-0.0977,0.766,1
65.9,-0.409,-1.21,-0.179,1.29,1
65.9,-1.57,-0.698,0.53,1.8,1
65.9,-2.55,-0.078,1.81,3.13,1
66.0,-2.6,0.292,2.3,3.49,1
66.0,-1.44,1.49,1.68,2.67,1
66.0,-0.424,3.14,0.412,3.2,1
66.0,0.469,3.41,-2.0,3.99,1
66.0,0.766,2.75,-3.29,4.36,1
66.0,0.693,1.49,-2.85,3.29,1
66.1,0.0649,-0.123,-1.33,1.34,1
66.1,-0.53,-0.617,-0.362,0.89,1
66.1,-0.783,-0.36,0.828,1.19,1
66.1,-0.343,0.134,0.736,0.823,1
66.1,-0.837,0.462,0.622,1.14,1
66.2,-1.2,1.07,-0.494,1.68,1
66.2,-1.05,1.69,-1.07,2.26,1
66.2,-0.968,1.6,-0.59,1.96,1
66.2,-0.589,1.35,-1.24,1.93,1
66.2,-0.212,1.32,-1.86,2.29,1
66.2,0.131,0.443,-1.55,1.62,1
66.3,0.467,-0.875,-0.904,1.34,1
66.3,1.07,-0.951,-0.0747,1.43,1
66.3,2.24,2.01,1.06,3.19,1
66.3,2.3533333333333335,4.93,2.2,6.87,1
66.3,2.466666666666667,2.58,1.6,5.37,1
66.4,2.58,0.213,-1.92,3.23,1
66.4,-0.493,-0.803,-3.38,3.51,1
66.4,-2.29,-0.917,-1.04,2.67,1
66.4,-1.77,-0.315,2.31,2.93,1
66.4,-0.108,-1.68,3.72,4.09,1
66.4,0.34,-3.27,3.71,4.95,1
66.5,0.341,-4.35,3.34,5.5,1
66.5,-0.112,-4.39,3.02,5.33,1
66.5,-0.568,-3.95,2.08,4.5,1
66.5,-0.964,-3.41,1.19,3.73,1
66.5,-1.15,-2.52,0.406,2.79,1
66.6,-0.821,-1.76,-0.37,1.98,1
66.6,-0.0527,-1.67,-1.13,2.02,1
66.6,0.757,-2.19,-1.35,2.69,1
66.6,1.51,-1.72,-1.03,2.51,1
66.6,2.77,2.17,-1.17,3.71,1
66.7,3.08,5.05,-2.14,6.29,1
66.7,2.16,3.27,-0.633,3.97,1
66.7,0.0103,0.65,1.21,1.37,1
66.7,-0.165,0.299,1.47,1.51,1
66.7,0.449,3.69,2.75,4.62,1
66.7,0.111,2.7,3.74,4.61,1
66.8,0.493,-1.71,0.446,1.83,1
66.8,0.991,-2.69,-1.77,3.37,1
66.8,1.49,-1.36,-1.91,2.78,1
66.8,1.29,-0.0299,-0.558,1.4,1
66.8,1.04,-0.104,0.12,1.05,1
66.9,0.524,-0.741,0.569,1.07,1
66.9,-0.369,-0.168,1.3,1.36,1
66.9,-1.41,0.685,0.484,1.64,1
66.9,-1.64,1.02,-0.73,2.06,1
66.9,-1.25,0.552,-0.541,1.47,1
66.9,-0.791,0.325,0.488,0.985,1
67.0,0.251,0.576,0.595,0.866,1
67.0,0.678,0.977,0.148,1.2,1
67.0,0.22,1.51,-0.163,1.54,1
67.0,-0.309,1.44,-1.97,2.46,1
67.0,-0.469,1.16,-2.49,2.79,1
67.1,-0.697,1.19,-1.17,1.81,1
67.1,-0.883,1.39,0.23,1.66,1
67.1,-0.74,1.11,0.35,1.38,1
67.1,-0.345,0.576,-0.3,0.735,1
67.1,-0.203,0.733,-0.837,1.13,1
67.1,-0.0853,0.978,-0.945,1.36,1
67.2,-0.0814,0.791,-1.08,1.34,1
67.2,-0.147,0.217,-0.829,0.87,1
67.2,-0.0315,0.0446,-0.339,0.343,1
67.2,0.615,0.638,0.215,0.912,1
67.2,1.71,1.93,0.417,2.61,1
67.3,3.0,3.88,1.18,5.04,1
67.3,2.795,2.3,1.52,4.78,1
67.3,2.59,-0.115,1.13,2.83,1
67.3,1.08,0.092,-0.955,1.44,1
67.3,-0.785,0.484,-0.912,1.3,1
67.3,-1.86,0.338,0.125,1.89,1
67.4,-1.02,-0.621,1.49,1.91,1
67.4,0.419,-2.51,2.03,3.26,1
67.4,0.517,-4.38,2.14,4.9,1
67.4,0.14,-4.84,2.45,5.43,1
67.4,0.131,-3.73,2.99,4.78,1
67.5,-0.225,-3.25,3.27,4.61,1
67.5,-0.316,-2.95,3.14,4.32,1
67.5,-0.121,-2.64,2.43,3.59,1
67.5,0.278,-2.31,1.27,2.66,1
67.5,1.01,-2.23,-0.0726,2.45,1
67.6,1.85,-2.77,-1.07,3.5,1
67.6,2.2,-3.45,-1.13,4.24,1
67.6,2.06,-2.52,-0.213,3.26,1
67.6,2.6,3.54,0.845,4.48,1
67.6,2.94,4.295,1.91,5.18,1
67.6,2.25,5.05,1.99,5.88,1
67.7,-0.267,1.88,0.416,1.94,1
67.7,-1.73,0.607,-0.314,1.86,1
67.7,-0.73,0.951,-1.2,1.7,1
67.7,0.502,3.13,-1.14,3.37,1
67.7,0.245,1.97,-0.144,1.99,1
67.8,-0.907,-1.48,0.273,1.76,1
67.8,-1.2,-1.58,-0.236,2.0,1
67.8,-0.831,-0.677,-1.18,1.6,1
67.8,-0.374,0.219,-2.16,2.2,1
67.8,-0.872,0.14,-0.308,0.935,1
67.8,-0.996,0.214,1.49,1.8,1
67.9,-0.445,0.625,2.43,2.55,1
67.9,0.0364,1.04,0.608,1.21,1
67.9,-0.37,2.48,-2.1,3.27,1
67.9,-0.793,2.86,-3.2,4.36,1
67.9,-0.816,1.83,-1.79,2.69,1
68.0,-0.314,0.381,-0.413,0.644,1
68.0,-0.00558,-0.159,0.576,0.597,1
68.0,-0.0839,-0.0414,0.825,0.83,1
68.0,-0.25,-0.0856,0.595,0.651,1
68.0,-0.345,-0.375,0.349,0.618,1
68.0,-0.427,-0.618,0.391,0.847,1
68.1,-0.508,-0.473,0.456,0.83,1
68.1,-0.436,-0.021,1.01,1.1,1
68.1,-0.147,0.228,1.17,1.2,1
68.1,-0.282,0.576,0.769,1.0,1
68.1,-0.0874,0.804,0.502,0.952,1
68.2,0.0428,1.09,0.341,1.15,1
68.2,-0.000314,0.963,0.158,0.976,1
68.2,0.0984,0.276,0.15,0.329,1
68.2,0.373,-0.519,0.0846,0.645,1
68.2,0.579,-0.381,0.526,0.871,1
68.3,1.47,-0.0536,0.412,1.53,1
68.3,2.27,0.209,0.44,2.32,1
68.3,2.69,0.681,-0.0127,2.78,1
68.3,3.31,1.19,-0.759,3.59,1
68.3,2.25,1.12,-1.91,3.16,1
68.3,-0.298,1.2,-2.67,2.94,1
68.4,-2.03,0.641,-1.82,2.8,1
68.4,-2.24,0.716,0.021,2.35,1
68.4,-1.18,-0.0681,0.479,1.27,1
68.4,0.247,-1.96,0.792,2.13,1
68.4,0.675,-3.75,1.68,4.16,1
68.5,0.21,-4.03,2.59,4.8,1
68.5,0.184,-3.76,2.58,4.56,1
68.5,0.148,-3.75,2.22,4.36,1
68.5,0.463,-3.45,1.63,3.84,1
68.5,0.691,-2.88,0.965,3.12,1
68.5,0.655,-2.44,0.273,2.54,1
68.6,0.475,-2.21,-0.473,2.31,1
68.6,0.485,-1.75,-1.52,2.36,1
68.6,0.739,-0.196,-2.28,2.4,1
68.6,1.16,1.99,-1.71,2.87,1
68.6,0.943,2.97,0.252,3.13,1
68.7,0.961,4.66,0.685,4.8,1
68.7,1.77,2.974666666666667,0.564,5.955,1
68.7,0.581,1.2893333333333334,-0.715,7.11,1
68.7,-1.81,-0.396,-2.65,3.24,1
68.7,-1.22,-3.91,-3.26,5.24,1
68.7,0.251,-4.16,-2.73,4.98,1
68.8,0.359,-3.68,-1.26,3.9,1
68.8,0.318,-1.08,1.05,1.54,1
68.8,1.56,1.54,0.36,6.56,1
68.8,-1.11,-0.503,-0.33000000000000007,4.74,1
68.8,-1.89,-1.36,-1.02,2.55,1
68.9,-1.78,-1.33,-4.13,4.69,1
68.9,-1.52,-0.697,-3.65,4.02,1
68.9,-1.25,-0.0147,0.29,1.28,1
68.9,-0.751,0.875,4.28,4.43,1
68.9,-0.721,2.82,3.24,4.36,1
69.0,-0.156,4.24,-3.22,5.33,1
69.0,-0.187,4.71,-3.4800000000000004,7.28,1
69.0,-1.03,3.55,-3.74,5.25,1
69.0,-1.25,1.29,-0.901,2.01,1
69.0,-1.19,0.0399,0.655,1.36,1
69.0,-1.11,-0.435,0.978,1.54,1
69.1,-0.975,-0.816,0.168,1.28,1
69.1,-1.01,-0.863,0.218,1.35,1
69.1,-1.38,-0.153,0.266,1.42,1
69.1,-1.33,0.44,-0.1,1.4,1
69.1,-0.643,0.931,-0.822,1.4,1
69.2,0.0393,1.48,-1.58,2.16,1
69.2,0.57,1.54,-1.92,2.53,1
69.2,0.575,0.836,-1.88,2.13,1
69.2,0.294,0.34,-1.41,1.48,1
69.2,0.127,-0.127,-0.587,0.614,1
69.2,0.502,-0.0823,0.401,0.648,1
69.3,1.48,1.17,1.41,2.35,1
69.3,2.68,3.43,2.26,4.91,1
69.3,3.72,2.92,1.42,4.94,1
69.3,3.45,0.276,-0.683,3.53,1
69.3,1.47,-0.343,-2.41,2.85,1
69.4,-0.864,-0.507,-1.89,2.14,1
69.4,-2.25,-0.209,0.559,2.33,1
69.4,-0.958,-0.583,2.87,3.08,1
69.4,-0.0837,-2.41,3.97,4.64,1
69.4,-0.114,-3.88,3.31,5.1,1
69.4,-0.795,-4.42,3.17,5.5,1
69.5,-0.807,-4.21,2.54,4.98,1
69.5,-0.672,-4.0,1.75,4.42,1
69.5,-0.539,-3.42,1.17,3.66,1
69.5,-0.436,-2.76,0.578,2.85,1
69.5,-0.258,-2.17,-0.184,2.2,1
69.6,0.0914,-1.62,-1.23,2.04,1
69.6,0.769,-0.768,-2.3,2.54,1
69.6,1.36,0.396,-2.48,2.86,1
69.6,1.63,2.48,-1.75,3.45,1
69.6,1.87,3.69,-0.176,4.14,1
69.7,2.09,2.54,1.34,3.55,1
69.7,1.8,1.29,2.76,3.54,1
69.7,1.04,1.09,2.25,2.71,1
69.7,1.13,2.53,0.201,2.78,1
69.7,1.11,4.45,-0.997,4.69,1
69.7,-0.099,1.41,-1.56,2.1,1
69.8,-0.555,-1.82,-1.57,2.46,1
69.8,-0.426,-2.18,-1.31,2.57,1
69.8,0.315,-0.871,-0.783,1.21,1
69.8,1.06,0.0236,0.401,1.13,1
69.8,0.622,-0.0621,0.499,0.8,1
69.9,-0.59,-0.0801,-0.0331,0.596,1
69.9,-1.74,0.318,-0.309,1.8,1
69.9,-2.25,0.662,0.00152,2.35,1
69.9,-2.22,0.565,0.0652,2.29,1
69.9,-2.19,0.158,0.513,2.25,1
69.9,-1.68,-0.0486,0.793,1.85,1
70.0,-0.893,-0.318,-0.664,1.16,1
70.0,-0.229,-0.657,-0.913,1.15,1
70.0,0.197,0.0844,-0.169,0.273,1
70.0,-0.152,0.77,-0.271,0.831,1
70.0,-0.161,0.885,-1.36,1.63,1
70.1,0.185,0.725,-1.48,1.66,1
70.1,-0.14,0.971,-0.493,1.1,1
70.1,-0.475,1.38,-0.236,1.48,1
70.1,-0.679,1.73,-0.728,2.0,1
70.1,-0.703,1.53,-1.48,2.24,1
70.1,-0.578,1.11,-1.72,2.13,1
70.2,-0.0282,0.729,-1.13,1.35,1
70.2,0.387,-0.15,-0.449,0.611,1
70.2,0.512,-0.148,0.349,0.637,1
70.2,1.24,2.44,0.748,2.84,1
70.2,2.17,4.55,1.03,5.15,1
70.3,3.24,3.44,1.84,5.08,1
70.3,2.98,0.627,0.0332,3.04,1
70.3,2.05,0.203,-1.76,2.71,1
70.3,0.597,0.323,-1.3,1.47,1
70.3,-0.59,-0.492,-0.0827,0.773,1
70.4,-0.905,-1.11,2.43,2.82,1
70.4,-0.323,-2.11,3.28,3.91,1
70.4,0.193,-3.2,2.66,4.17,1
70.4,-0.336,-3.84,2.29,4.48,1
70.4,-0.73,-3.71,3.1,4.89,1
70.4,-0.683,-3.57,3.19,4.84,1
70.5,-0.599,-3.31,2.76,4.35,1
70.5,-0.323,-3.01,1.85,3.55,1
70.5,0.0808,-2.73,0.674,2.81,1
70.5,0.585,-2.18,-0.717,2.37,1
70.5,1.62,-1.02,-2.2,2.91,1
70.6,2.34,0.0479,-3.38,4.11,1
70.6,2.74,1.88,-2.86,4.39,1
70.6,2.73,3.44,0.202,4.4,1
70.6,1.07,2.42,2.65,3.75,1
70.6,-0.39,0.258,3.33,3.37,1
70.6,-0.241,0.492,2.2,2.27,1
70.7,-0.0187,2.85,1.34,3.15,1
70.7,-0.3,2.81,0.172,2.83,1
70.7,-0.123,0.528,-1.08,1.21,1
70.7,-0.0508,-1.02,-1.49,1.8,1
70.7,0.571,-0.997,-1.57,1.95,1
70.8,1.09,-0.329,-0.823,1.41,1
70.8,1.01,0.267,-0.38,1.12,1
70.8,-0.152,0.38,0.299,0.506,1
70.8,-1.25,-0.0104,0.565,1.37,1
70.8,-2.0,-0.703,1.0,2.35,1
70.8,-1.87,-0.806,1.53,2.55,1
70.9,-1.83,-0.619,1.99,2.77,1
70.9,-1.04,-0.103,1.39,1.74,1
70.9,0.00952,-0.0458,0.505,0.507,1
70.9,0.19,1.13,0.74,1.36,1
70.9,-0.126,1.98,-0.24,2.0,1
71.0,0.441,1.51,-1.92,2.48,1
71.0,0.985,1.24,-2.81,3.23,1
71.0,0.534,1.33,-1.94,2.41,1
71.0,0.156,1.49,-0.618,1.62,1
71.0,-0.318,1.25,0.431,1.36,1
71.1,-0.647,1.17,0.976,1.66,1
71.1,-0.407,1.47,0.463,1.6,1
71.1,0.391,2.05,-0.251,2.1,1
71.1,0.697,2.1,-0.937,2.4,1
71.1,0.446,1.08,-1.12,1.62,1
71.1,0.216,-0.409,-1.05,1.14,1
71.2,0.423,-0.949,-0.88,1.36,1
71.2,1.64,1.39,-0.948,2.35,1
71.2,3.09,5.3,-0.573,6.16,1
71.2,2.31,5.54,0.179,6.01,1
71.2,0.0157,1.65,-1.16,2.02,1
71.3,-0.495,-1.72,-1.83,2.56,1
71.3,-0.716,-2.76,0.279,2.86,1
71.3,0.24,-2.74,2.73,3.87,1
71.3,0.869,-3.38,3.005,5.82,1
71.3,0.484,-4.23,3.2800000000000002,6.71,1
71.3,0.862,-4.09,3.555,6.3,1
71.4,0.333,-4.01,3.83,5.56,1
71.4,-0.0364,-3.7,2.75,4.61,1
71.4,0.0428,-3.47,1.79,3.91,1
71.4,0.171,-2.96,0.98,3.12,1
71.4,0.56,-2.42,0.15,2.48,1
71.5,1.27,-2.21,-0.696,2.64,1
71.5,1.49,-2.08,-1.28,2.86,1
71.5,1.47,-2.29,-0.687,2.81,1
71.5,1.57,-1.18,1.05,2.23,1
71.5,2.34,5.03,3.13,6.37,1
71.5,2.85,4.515000000000001,3.61,5.545,1
71.6,2.14,4.0,1.3,4.72,1
71.6,-0.197,0.141,-1.46,1.48,1
71.6,-0.232,0.283,-2.63,4.58,1
71.6,1.19,3.93,-3.8,5.59,1
71.6,1.71,4.86,0.373,5.16,1
71.7,-0.719,-1.22,0.762,1.61,1
71.7,-1.01,-3.15,-0.856,3.42,1
71.7,-0.545,-2.08,-0.659,2.25,1
71.7,-0.899,-0.537,-0.0276,1.05,1
71.7,-2.19,0.347,0.393,2.25,1
71.8,-2.58,-0.0149,0.266,2.6,1
71.8,-1.5,-0.272,1.85,2.4,1
71.8,-0.306,0.904,1.94,2.16,1
71.8,0.345,2.88,-0.764,3.0,1
71.8,0.304,3.51,-2.27,4.19,1
71.8,0.563,2.79,-2.57,3.84,1
71.9,0.495,0.778,-2.28,2.46,1
71.9,0.43,-0.769,-1.17,1.47,1
71.9,0.113,-0.967,0.0767,0.976,1
71.9,-0.319,-0.528,0.696,0.93,1
71.9,-0.499,-0.365,1.04,1.21,1
72.0,-0.193,-0.0107,1.07,1.09,1
72.0,0.136,0.475,0.665,0.828,1
72.0,-0.415,0.608,0.451,0.863,1
72.0,-0.703,0.953,0.204,1.2,1
72.0,-0.455,1.12,0.0366,1.21,1
72.0,-0.323,1.06,-0.336,1.16,1
72.1,-0.271,1.61,-0.511,1.71,1
72.1,0.116,1.84,-0.764,2.0,1
72.1,0.902,0.981,-0.577,1.45,1
72.1,1.28,-0.398,0.0986,1.35,1
72.1,1.44,-1.18,0.828,2.04,1
72.2,1.74,-0.976,1.17,2.32,1
72.2,2.6,0.503,0.882,2.79,1
72.2,3.5,2.14,-0.245,4.11,1
72.2,2.83,2.71,-2.22,4.5,1
72.2,0.11,1.43,-3.9,4.15,1
72.2,-2.17,-0.162,-2.9,3.63,1
72.3,-2.04,-0.262,-0.142,2.06,1
72.3,-0.606,-1.08,2.16,2.49,1
72.3,0.442,-2.7,3.8,4.68,1
72.3,0.221,-4.31,3.67,6.2,1
72.3,-0.411,-4.67,3.54,5.87,1
72.4,-0.691,-4.22,2.4,4.9,1
72.4,-0.72,-3.92,1.43,4.24,1
72.4,-0.238,-3.2,0.755,3.3,1
72.4,0.247,-2.29,0.243,2.31,1
72.4,0.78,-1.35,-0.189,1.57,1
72.5,1.21,-0.98,-0.467,1.62,1
72.5,1.49,-1.03,-0.856,2.0,1
72.5,1.84,-1.03,-1.38,2.52,1
72.5,1.98,0.00303,-1.11,2.27,1
72.5,1.6,1.74,0.972,2.56,1
72.5,1.45,1.76,2.08,3.09,1
72.6,1.61,2.25,1.49,3.14,1
72.6,2.89,1.5406666666666666,-0.741,5.35,1
72.6,2.22,0.8313333333333333,-1.58,7.56,1
72.6,-1.56,0.122,-3.42,3.76,1
72.6,-2.97,-3.19,-3.455,6.41,1
72.7,-1.17,-3.32,-3.49,4.95,1
72.7,-0.897,-2.29,-0.695,2.55,1
