Time (s),Linear Acceleration x (m/s^2),Linear Acceleration y (m/s^2),Linear Acceleration z (m/s^2),Absolute acceleration (m/s^2),Walking(0)/Jumping(1)
0.007924708305,0.6529413226,0.3828704184,-1.903549946,2.048517641,1
0.01793770841,0.8639281592,0.5617189112,-1.674986379,1.966590799,1
0.02795170841,0.7723286024,0.7466394451,-1.457186952,1.810346857,1
0.03796570841,0.4996860927,0.9120399266,-1.286833586,1.654522196,1
0.04797970841,0.08112748593,1.168036875,-1.02339664,1.555066717,1
0.05799370841,-0.2617798448,1.421995192,-0.6249831533,1.575183467,1
0.06800770841,-0.324466382,1.544832621,-0.1772109801,1.588455222,1
0.0780207084,-0.31511493,1.564333085,0.1960162103,1.607749289,1
0.0880347084,-0.2667552406,1.690131252,0.371923846,1.751008097,1
0.0980487084,-0.1653855711,1.885589054,0.4565254551,1.947103992,1
0.1080627084,-0.0465698567,1.999545147,0.6223331952,2.094671371,1
0.1180767084,0.0003370919824,1.975230963,0.8954841202,2.168739099,1
0.1280897084,-0.1447829068,1.903695542,1.304295711,2.312186434,1
0.1381037084,-0.5146321607,1.790910353,1.75478567,2.559585689,1
0.1481177084,-1.039908593,1.630066314,2.159080871,2.89830231,1
0.1581317084,-1.428214875,1.611798736,2.464556374,3.272878093,1
0.1681457084,-1.561175004,1.613130147,2.55899183,3.4040998,1
0.1781597084,-1.593749258,1.509356394,2.563404724,3.374794394,1
0.1881727084,-1.433705411,1.426391129,2.420806337,3.154426442,1
0.1981867084,-1.079840398,1.578755243,2.126555734,2.860203261,1
0.2082007084,-0.8580239332,1.831757247,1.810727152,2.71482458,1
0.2182147084,-0.8423425779,1.835363225,1.748485295,2.671198236,1
0.2282287084,-0.9871298701,1.47602171,2.059865901,2.719579563,1
0.2382417084,-1.405798112,0.9118905303,2.418534109,2.942298406,1
0.2482557084,-1.954208176,0.4743091768,2.842864795,3.48220893,1
0.2582697084,-2.3333814,0.02675510466,3.081786704,3.865591013,1
0.2682837084,-2.578005514,-0.4044665247,2.915507094,3.912785097,1
0.2782977084,-2.482831262,-0.6740839773,2.477519066,3.571686017,1
0.2883117084,-2.858857514,-0.9150114816,2.133162503,3.682484835,1
0.2983247084,-3.2885653,-1.109522619,1.688790486,3.859755883,1
0.3083387084,-2.719190921,-1.125801267,0.7060138679,3.026529917,1
0.3183527084,-2.421151323,-1.397143064,-0.09445416749,2.796945487,1
0.3283667084,-2.175368583,-1.492871339,-0.5521350324,2.695504851,1
0.3383807084,-1.86907564,-1.347541718,-1.053353096,2.533547942,1
0.3483947084,-1.739403107,-1.415769077,-1.6242688,2.769146869,1
0.3584077084,-3.897929663,-3.412944932,-1.437745544,5.376724004,1
0.3684217084,-3.67159944,-3.65073599,-1.808905159,5.484583265,1
0.3784357083,-1.74420718,-2.087281156,-1.090791063,2.930669967,1
0.3884497083,-0.97456128,-1.343412999,-0.4685034764,1.724535787,1
0.3984637083,-0.4546473294,-1.333370991,-0.5273019075,1.504204007,1
0.4084767083,-0.4888450626,-1.622953761,-0.6399619657,1.811767017,1
0.4184907083,-0.5758389138,-1.90395165,-0.7338290727,2.120171561,1
0.4285047083,-0.5932909521,-1.934656549,-0.520731976,2.089509968,1
0.4385187083,-0.4903018963,-1.848075072,-0.3693235892,1.947351364,1
0.4485327083,-0.2460486419,-1.742074408,-0.438961004,1.813298084,1
0.4585467083,0.1346290706,-1.598035852,-0.6482854772,1.729773867,1
0.4685597083,0.4767581369,-1.388901998,-0.7949698985,1.669827602,1
0.4785737083,0.4169183166,-1.245828232,-1.010300632,1.657291837,1
0.4885877083,0.160982033,-0.9368444002,-0.890116961,1.30226758,1
0.4986017083,0.1036338575,-0.5218791997,-0.5209565091,0.7446432434,1
0.5086157083,0.5591295449,-1.059061148,-0.753944664,1.415156853,1
0.5186287083,0.9661497679,-1.448538335,-0.4127134377,1.789424786,1
0.5286427083,0.5594478527,-1.279327515,-0.07125943244,1.398119701,1
0.5386567083,0.07707112625,-1.237767261,-0.3887579799,1.299669388,1
0.5486707083,-0.08056396052,-1.428771238,-1.241836338,1.894738845,1
0.5586847083,0.1110767783,-1.464767867,-1.858491302,2.368939188,1
0.5686987083,0.6026203309,-1.19146316,-1.77387566,2.220218589,1
0.5787117083,0.7750216837,-0.7193437654,-1.502443231,1.837239703,1
0.5887255834,1.314327048,-0.3842462683,-0.8628443778,1.618518212,1
0.5987395834,2.014796147,-0.195945459,0.339803921,2.052623892,1
0.6087535834,2.113576085,0.08233639777,1.050863351,2.361841852,1
0.6187675834,1.70793924,0.3561164832,1.057813352,2.040304998,1
0.6287805834,1.194195856,0.3869991374,1.299428489,1.806761321,1
0.6387945834,0.9377080339,0.2609331679,1.890861488,2.126673374,1
0.6488085834,0.904783532,0.1722309065,2.174637973,2.361640752,1
0.6588225834,1.364708851,0.1775676602,2.177524159,2.5759604,1
0.6688365834,2.076003339,0.3805537516,1.896590005,2.837545536,1
0.6788495834,2.577952889,0.5550984013,1.568215052,3.068105895,1
0.6888635834,2.830705802,0.6996497583,1.044312131,3.097255713,1
0.6988775834,2.876381912,0.8182283682,0.2960860437,3.005118552,1
0.7088915834,2.820046328,0.890635609,-0.2813177311,2.970695667,1
0.7189055834,2.611611216,1.080449093,-0.4349159002,2.859551578,1
0.7289195834,2.397368942,1.339658502,-0.3086072713,2.763566753,1
0.7389325834,2.254471763,1.380125912,0.01559218526,2.643413244,1
0.7489465834,2.016191001,1.275288259,0.4962590396,2.43673128,1
0.7589605834,1.96106082,1.126754948,0.8828026789,2.427895554,1
0.7689745834,2.137982655,1.008588567,1.063920768,2.592324851,1
0.7789885834,2.390441161,0.9948388392,1.109177048,2.816768891,1
0.7890015834,2.5170977,1.250166281,1.302228135,3.097498132,1
0.7990155834,2.610661629,1.551489092,1.335597026,3.317603345,1
0.8090295834,2.730454413,1.531691589,1.631362057,3.530269478,1
0.8190435834,2.487605806,1.168402911,2.401812826,3.649938747,1
0.8290575834,1.929375636,0.6705294549,3.183402834,3.782347643,1
0.8390715834,1.539167839,0.3108642966,3.786794266,4.099449361,1
0.8490845833,1.580564371,-0.0003824079037,4.192588693,4.480623152,1
0.8590985833,1.864189999,-0.4148394853,4.295261123,4.700698274,1
0.8691125833,2.150242805,-0.8581806386,3.937883103,4.568034748,1
0.8791265833,2.680622979,-1.124164047,3.251396596,4.361314502,1
0.8891405833,3.247207358,-1.331091746,2.350302365,4.223752132,1
0.8991535833,3.407639461,-1.60384506,1.845343545,4.193997911,1
0.9091675833,3.071769254,-2.013158342,1.440720315,3.945154989,1
0.9191815833,2.375508542,-2.400948608,1.311895337,3.62334989,1
0.9291955833,1.630062514,-2.810095244,1.290121329,3.495447342,1
0.9392095833,0.9466083732,-3.03728413,1.684395426,3.599770861,1
0.9492225833,0.6918238449,-3.239179716,1.35619282,3.579129004,1
0.9592365833,0.3286474335,-3.755773033,1.417912374,4.02794187,1
0.9692505833,0.006376096308,-3.958080847,1.38805649,4.194418371,1
0.9792645833,-0.6320106295,-3.929511352,1.155827304,4.144446122,1
0.9892785833,-2.911813992,-3.113592049,0.09748178266,4.264108215,1
0.9992915833,-4.962177583,-3.214928974,-0.9572236278,5.989595291,1
1.009305583,-5.964610201,-3.787956108,-3.139098773,7.731696284,1
1.019319583,-7.443427173,-3.1987661,-3.950323931,7.8286138045,1
1.029333583,-6.178523569,-3.41645677,-4.01710001075,7.925531325,1
1.039347583,-4.683311005,-3.563787893,-4.0838760905000004,8.0224488455,1
1.049361583,-4.149915421,-3.42728172,-4.15065217025,8.119366366,1
1.059374583,-3.351992094,-3.549586176,-4.21742825,6.451520291,1
1.069388583,-2.805758072,-2.841194245,-2.200756316,4.559384987,1
1.079402583,-2.454825145,-2.221336176,0.01931920052,3.31072109,1
1.089416583,-1.247461652,-2.02317053,2.238857943,3.265251055,1
1.099430583,1.061421376,-2.434623892,3.274875798,4.216493843,1
1.109443583,3.757093334,-4.041035296,3.313929352,6.436446561,1
1.119457583,4.069981937,-4.0246912756,3.889395944,7.44565401,1
1.129471583,3.124252108,-4.0083472552,4.413644435,6.840347379,1
1.139485583,2.237266915,-3.9920032348000003,3.625826851,5.958193014,1
1.149499583,1.698605914,-3.9756592144000003,2.184996901,5.253910747,1
1.159512583,1.724616669,-3.959315194,0.7837760619,4.389166707,1
1.169526583,1.713875333,-3.343010479,-0.6223167499,3.807934592,1
1.179540583,1.889282155,-2.820769921,-1.108241494,3.571320374,1
1.189554583,1.246330508,-2.215293079,-2.059043198,3.271165244,1
1.199568583,0.3345323637,-2.109179564,-2.777361946,3.503468241,1
1.209582583,0.173471978,-1.897712671,-3.326665757,3.833811545,1
1.219595583,0.2720487249,-1.24194685,-3.952626565,4.152071681,1
1.229609583,0.07336209118,-0.7099408579,-4.723267368,4.776887339,1
1.239623583,-0.1549617398,-0.5022670537,-4.992377282,5.019971739,1
1.249637583,-0.3904276523,-0.3217570746,-4.886418718,4.91254,1
1.259651583,-1.156918687,-0.01776559532,-4.752860126,4.891672091,1
1.269664583,-1.700952694,0.3786908287,-4.31858742,4.656913583,1
1.279678583,-2.428042559,0.9012003583,-4.098279537,4.84803547,1
1.289692583,-3.391308772,1.533748639,-3.949356802,5.426857214,1
1.299706583,-3.780200361,2.214067503,-3.620712876,5.683447141,1
1.309720583,-2.80175653,2.214984346,-3.595261116,5.067731031,1
1.319733583,-1.254209631,2.322146267,-2.817855084,3.860791675,1
1.329747583,-0.940935697,2.730267302,-2.064433161,3.549873773,1
1.339761583,-1.487589111,2.214953356,-1.994685234,3.331322397,1
1.349775583,-1.024445485,1.759786794,-2.154431019,2.964441115,1
1.359789583,1.559087694,1.397797952,-0.9211877494,2.28761457,1
1.369803583,4.466814044,2.266517027,2.00832328,5.396562752,1
1.379816583,3.492376141,2.53369853,2.837497051,5.164078704,1
1.389830583,0.7704491611,1.481178077,2.97822082,3.414275862,1
1.399844583,-1.886921049,1.150271865,2.538749939,3.365835359,1
1.409858583,-3.274080285,0.9342149073,2.548361592,4.252823298,1
1.419872583,-2.864158892,1.417350456,3.850782101,5.004079462,1
1.429885583,-3.163712335,1.168047985,3.334593119,4.742670461,1
1.439899583,-2.514088138,1.987553385,3.787297711,4.961313493,1
1.449913583,-2.643087948,2.373393019,2.7723617,4.506095618,1
1.459927583,-1.693345759,2.068301679,1.715692356,3.176301616,1
1.469941583,-0.7721624684,1.406869322,1.444337111,2.159079863,1
1.479954583,-0.4154254494,0.4931179154,2.361110504,2.447567445,1
1.489968583,0.05381536089,0.2772112316,3.607944019,3.618978061,1
1.499982583,0.2803427079,0.06732250214,4.756833017,4.76556237,1
1.509996583,-0.4017544399,-0.4169438982,4.831074237,4.865647658,1
1.520010583,-1.310446543,-0.1201556039,3.033666166,3.306786645,1
1.530023583,-1.323748228,0.3282697034,0.5019264534,1.453272354,1
1.540037583,-0.9729075412,0.5109337968,-1.504112758,1.862782225,1
1.550051583,-0.4729850748,0.4763913703,-2.400828448,2.49291814,1
1.560065583,-0.04246277243,0.09614342809,-2.749137436,2.751145814,1
1.570079583,0.06335019618,-0.3454178327,-1.942995847,1.974477042,1
1.580092583,0.005273603797,-0.5441529983,-0.2339470983,0.592335666,1
1.590105833,0.1526810333,-0.867224527,1.102082037,1.410664628,1
1.600119833,0.02317514688,-1.149690067,1.639262377,2.002374959,1
1.610133833,-0.2841735113,-1.244974539,1.303650763,1.824889448,1
1.620147833,-0.3676790598,-1.46509648,0.440473094,1.573439587,1
1.630161833,-0.0070903337,-1.78331482,-0.4937144776,1.850409686,1
1.640174833,0.5470435694,-2.087394007,-0.8754391341,2.328704379,1
1.650188833,1.039081796,-2.39783555,-0.6748014307,2.699011537,1
1.660202833,1.175654043,-2.718244257,-0.06333835557,2.96226704,1
1.670216833,1.356414283,-3.098836015,0.3490004218,3.40065371,1
1.680230833,1.746086183,-3.147255639,0.4550420165,3.627822797,1
1.690243833,2.202040365,-3.067660416,0.2787858868,3.786455303,1
1.700257833,2.514669936,-3.253003703,0.2744882564,4.120793829,1
1.710271833,1.972673098,-3.221077321,0.6805291439,3.837954947,1
1.720285833,1.24788119,-2.907851334,1.032184421,3.328394737,1
1.730299833,0.9524476951,-2.615550778,0.6582853854,2.860350002,1
1.740312833,0.7334554356,-2.408411994,-0.1406546994,2.521544954,1
1.750326833,0.04895172,-1.889710756,-0.5523057711,1.969376723,1
1.760340833,-1.021424375,-0.9274046552,-0.4416800324,1.448609126,1
1.770354833,-2.610214024,0.2211913973,0.03570083298,2.619812481,1
1.780368833,-4.298037965,1.44045222,-0.0320731473,4.533107283,1
1.790381833,-5.720173783,2.307575591,-1.183164134,6.280539036,1
1.800395833,-6.64790939,3.615577267,-2.38651651,7.93489504,1
1.810409833,-7.170248181,3.629605833625,-2.963281184,7.9556830985,1
1.820423833,-5.184503925,3.64363440025,-2.911141562,7.976471157,1
1.830437833,-4.429576929,3.657662966875,-1.575919343,6.732486775,1
1.840450833,-4.78473096,3.6716915334999998,-0.09494708776,6.659859483,1
1.850464833,-5.684085352,3.685720100125,0.8130040272,7.382177034,1
1.860478833,-7.753346559,3.69974866675,1.445006178,7.5014705801999995,1
1.870492833,-9.096795811,3.713777233375,0.9057946618,7.6207641264,1
1.880506833,-9.021242183,3.7278058,-0.6498468299,7.7400576726,1
1.890520833,-8.585510012,2.553944514,-1.620195922,7.8593512188000005,1
1.900533833,-7.3274687,1.813417456,-2.584277822,7.978644765,1
1.910547833,-4.816322882,1.116505364,-4.45786225,6.657032835,1
1.920561833,-0.9462185101,0.8139943993,-4.1063662364999995,5.61142297,1
1.930575833,2.963473558,0.5111717784,-3.754870223,4.810667574,1
1.940589833,5.499148446,-0.8273652273,-0.8385316551,5.623904532,1
1.950602833,6.425199471,-2.63286029,1.690118681,7.146442661,1
1.960616833,6.409931806,-3.861880116,4.591538078,6.986578213285714,1
1.970630833,7.281224241,-3.650153256,4.546853461,6.826713765571428,1
1.980644833,9.637788974,-3.438426396,4.502168844,6.666849317857142,1
1.990658833,11.79928708,-3.226699536,4.457484227,6.506984870142857,1
2.000671833,10.91075238,-3.014972676,3.757744129,6.3471204224285716,1
2.010685833,6.85788115,-2.803245816,4.357344519,6.187255974714286,1
2.020699833,4.085426772,-0.9924660391,4.318998479,6.027391527,1
2.030713833,3.059163827,0.2671850109,2.744511704,4.11852105,1
2.040727833,2.815890712,0.410259946,0.7344971171,2.938884098,1
2.050740833,2.926615049,0.1586554259,-0.7768891382,3.032128613,1
2.060754833,3.257554591,-0.4235307866,-1.406593626,3.573450135,1
2.070768833,2.610404936,-1.089830366,-0.09950791597,2.830520443,1
2.080782833,1.309203571,-1.688510404,1.253173797,2.476999383,1
2.090796833,0.7648071096,-2.807684437,1.128375796,3.121098164,1
2.100809833,1.746242303,-3.844697489,1.150594631,4.376634434,1
2.110823833,2.615088848,-3.879097535666667,1.123890105,5.154882919,1
2.120837833,1.616128014,-3.9134975823333336,1.218660022,4.99625152,1
2.130851833,-0.2890924814,-3.947897629,1.853725237,5.217324795,1
2.140865833,-1.659483072,-3.9822976756666666,1.821050265,5.581387015,1
2.150878833,-2.095615046,-4.016697722333333,1.556770151,5.302437269,1
2.160892833,-2.378464602,-4.051097769,0.7455083013,4.756497622,1
2.170906833,-2.716183698,-3.57154364,0.1037405692,4.488244641,1
2.180920833,-2.174316376,-3.03336825,-0.6179688334,3.782969749,1
2.190934833,-2.016959617,-2.792988045,-1.00146315,3.58773421,1
2.200947833,-2.838063354,-2.342548372,-0.5044401714,3.714376982,1
2.210961833,-3.541240737,-1.350664131,0.1605119169,3.793473821,1
2.220975833,-3.509647646,-0.8520229357,0.223920439,3.618523186,1
2.230989833,-2.137034529,-0.5269294399,-0.5620808539,2.271674735,1
2.241003833,0.07881315798,-0.6293562859,-1.598236557,1.719494386,1
2.251017833,1.775202101,-1.171162212,-1.353831568,2.52107583,1
2.261030833,2.054458396,-1.890757408,-0.8055312856,2.905966883,1
2.271044833,1.936385278,-2.150534581,-0.1414184189,2.897306697,1
2.281058833,2.298976968,-2.239604048,0.1379369867,3.212498716,1
2.291072833,2.146178698,-2.358104305,0.243512266,3.197817559,1
2.301085833,2.068444351,-2.054794026,0.5248775057,2.962454543,1
2.311099833,2.085473782,-1.398102592,0.495959516,2.55927091,1
2.321113833,0.2089134139,-0.8147247165,0.2753021157,0.8849929001,1
2.331127833,-2.492413094,0.3011930019,0.2858994631,2.526772399,1
2.341141833,-3.630896387,0.9789022529,-0.8636958785,3.85844901,1
2.351155833,-2.439068361,1.710597092,-2.415594714,3.835400201,1
2.361168833,-0.4633427238,2.103742238,-3.773767254,4.345312091,1
2.371182833,0.2615757769,1.862148736,-3.361585329,3.851788639,1
2.381196833,-0.9722943145,1.657302645,-2.434673155,3.101554717,1
2.391210833,-0.8943246174,1.366652173,-1.146737296,1.995635515,1
2.401224833,0.4550361693,0.450563634,-1.312943158,1.460782407,1
2.411237833,0.8975382471,0.2360298765,-2.703511612,2.858366675,1
2.421251833,1.105261753,-0.03798526704,-2.739979527,2.954747744,1
2.431265833,0.3389525664,-0.5102631211,-2.424878923,2.501058793,1
2.441279833,-0.9083854169,0.1329931659,-0.7300447547,1.172952084,1
2.451293833,-2.674176716,-0.1724186021,0.1199334188,2.682411845,1
2.461306833,-3.936519824,-1.175445882,-1.489960011,4.3701078,1
2.471320833,-4.576032724,1.333377423,-0.6175033951,4.806171167,1
2.481334833,-3.749649829,0.6915256369,-1.591041412,4.131524455,1
2.491348833,-3.274612089,1.883930783,-1.611239449,4.107112379,1
2.501362833,-3.590189826,2.227707887,-1.655604029,4.537969823,1
2.511375833,-3.781993702,2.486312694,-0.1919717095,4.530130275,1
2.521389833,-3.943280375,1.895964353,1.632356669,4.669981717,1
2.531403833,-4.760549215,1.624486024,3.841255817,6.329062326,1
2.541417833,-4.243471749,1.924375682,5.143592126,6.940231567,1
2.551431833,-2.947566792,1.602340864,4.924346098,5.958593016,1
2.561444833,-1.993389491,1.369673137,4.321349645,4.952137813,1
2.571458833,-1.007510925,1.225802103,3.63282246,3.964223516,1
2.581472833,-0.2260498488,1.358207916,2.942952754,3.249122681,1
2.591487375,0.3584612167,0.8900257444,2.373410561,2.560023039,1
2.601501375,0.6530065191,0.3038736579,1.500339403,1.664264113,1
2.611514375,1.123682821,0.6241379383,1.654493058,2.095127329,1
2.621528375,1.157333547,0.7012451711,2.85923349,3.163286563,1
2.631542375,0.9028188676,0.381892764,2.867114367,3.030060855,1
2.641556375,0.4045711899,0.02520208418,2.405624042,2.439536846,1
2.651570375,0.3760946649,0.2312948012,1.642040827,1.70036542,1
2.661583375,0.7316977626,-0.393793602,0.8139230633,1.163153373,1
2.671597375,1.609386467,-0.5080546278,0.2571921376,1.707159073,1
2.681611375,2.52652575,-0.08012176484,0.2117054594,2.536645633,1
2.691625375,2.52013182,-0.1535591389,0.7543715107,2.635094149,1
2.701639375,2.4092499,-0.5860825047,0.4895546222,2.527378387,1
2.711652375,1.617945621,-0.2983448231,-0.1780500555,1.654829142,1
2.721666375,0.7644275522,-0.2268672895,-0.6476060307,1.027235037,1
2.731680375,0.557438457,-0.6510544261,-1.382737863,1.626829277,1
2.741694375,0.6813146442,-0.6746967655,-2.110601606,2.318198549,1
2.751708375,1.019888896,-0.2765604365,-2.545926812,2.756519974,1
2.761721375,0.9350756174,-0.530285157,-2.798117223,2.997503753,1
2.771735375,0.4542514729,-0.7547511412,-2.711351559,2.850863196,1
2.781749375,-0.1121811712,-1.242393285,-2.489041589,2.784143266,1
2.791763375,-0.2798646981,-1.25367081,-1.720920936,2.147459806,1
2.801777375,0.8291240698,-0.8070461529,-0.7434787327,1.375329358,1
2.811791375,1.987362181,-1.111811219,-0.2049039781,2.286420404,1
2.821804375,2.777815105,-1.421187399,0.2768317473,3.13251755,1
2.831818375,3.128784869,-1.565475047,0.9289155757,3.619791572,1
2.841832375,2.990636213,-1.786825488,1.248122095,3.700602525,1
2.851846375,2.351377668,-1.917673018,1.098319938,3.226879829,1
2.861860375,2.085484892,-1.786398495,0.9588217449,2.908574557,1
2.871873375,1.863812853,-1.82212279,0.8997976112,2.757456356,1
2.881887375,1.439982689,-1.918143719,0.8318026793,2.538645538,1
2.891901375,0.9261837566,-1.7252163,0.7871615267,2.110405388,1
2.901915375,0.5398933017,-1.393950338,0.9333173597,1.762289311,1
2.911929375,0.6162269479,-0.8156783974,0.9426939547,1.390589368,1
2.921942375,0.04981769264,-1.079248952,0.6116012156,1.241497543,1
2.931956375,-0.8797714823,-0.9764287345,0.3207256258,1.352876883,1
2.941970375,-0.4729789352,0.08709749311,-0.06799317777,0.4857140298,1
2.951984375,-0.5148906076,-0.3625063205,-0.06190271795,0.6327362141,1
2.961998375,-2.148827779,-1.675920618,0.184963785,2.731370049,1
2.972011375,-2.922278754,-1.221526473,-0.1958267788,3.173355979,1
2.982025375,-2.189458326,-0.2746450348,-0.8856993896,2.37773444,1
2.992039375,-3.155370405,-1.76100126,-1.446550282,3.892299519,1
3.002053375,-3.892930586,-2.023175938,-0.6403678355,4.433759171,1
3.012067375,-4.345384625,-1.593083552,-0.6000723336,4.666944348,1
3.022080375,-5.152391016,-0.7520644187,-0.9415238538,5.291427146,1
3.032094375,-5.93386905,0.2393336264,-0.1097754805,5.939708169,1
3.042108375,-6.355367929,0.4029614514,0.1318050116,6.369493858,1
3.052122375,-6.000600398,0.5011958438,-1.742330516,6.268502057,1
3.062136375,-5.194628963,0.5405905091,-3.357817383,6.208973002,1
3.072149375,-3.707904217,0.9442799389,-3.33713812,5.077076828,1
3.082163375,-2.281002334,1.514116613,-2.210583147,3.518834838,1
3.092177375,-1.399735134,1.801167246,-0.6041343212,2.359754261,1
3.102191375,-0.107481764,1.526779635,1.77920832,2.346953479,1
3.112205375,1.559645373,1.977661943,3.781421844,4.543433901,1
3.122218375,1.842096879,2.575290067,4.74617442,5.705401955,1
3.132232375,0.8516077834,2.62900756,3.450388162,4.420644188,1
3.142246375,0.3934141177,2.582000916,1.701085426,3.11692076,1
3.152260375,0.5198934853,2.809322827,0.6534097577,2.930789705,1
3.162274375,-0.2621949971,2.747251124,1.817278518,3.304335965,1
3.172287375,-0.5705315423,2.850888344,2.925605235,4.124589262,1
3.182301375,-0.4905574197,3.855861577,2.559008787,4.653691122,1
3.192315375,-1.062467151,3.8166421576666667,1.523583986,4.533961764,1
3.202329375,-1.231590262,3.7774227383333336,0.7503152242,4.179709903,1
3.212343375,-0.6788564748,3.738203319,0.07979804836,3.800181298,1
3.222356375,0.5848373401,3.198646525,-0.4626983607,3.284427511,1
3.232370375,1.381938549,2.23119312,-0.4672369695,2.665762044,1
3.242384375,2.067830393,1.490719272,-0.2811821488,2.564611059,1
3.252398375,3.020435379,0.9642950311,0.177135551,3.175574245,1
3.262412375,4.94714673,0.4571905759,1.155261294,5.100775691,1
3.272425375,4.26163437,0.2655200528,0.6741911276,4.322795632,1
3.282439375,3.419761031,-0.4456268299,0.3065144797,3.46226803,1
3.292453375,3.493666329,-0.8581870705,1.102602439,3.76270137,1
3.302467375,3.48774076,-0.7270881101,0.8100239937,3.653646343,1
3.312481375,3.837438755,-0.5028865662,-0.2935256942,3.881364249,1
3.322494375,3.728582895,-0.7807757825,-1.397421537,4.057675219,1
3.332508375,3.567565194,-0.9448147398,-1.909757935,4.15540271,1
3.342522375,3.422754221,-1.031393293,-2.33877034,4.271869062,1
3.352536375,3.132575619,-1.427005671,-2.716937989,4.385330915,1
3.362550375,2.77214623,-1.510856205,-2.845030019,4.249903175,1
3.372563375,2.710853961,-1.165342771,-3.170527557,4.331165889,1
3.382577375,2.685108086,-0.8786549565,-3.585580466,4.564890715,1
3.392591375,2.567479649,-0.5602269942,-3.665480914,4.510161456,1
3.402605375,2.501648771,-0.2938456648,-3.513166208,4.322838033,1
3.412619375,2.370723181,-0.1250339359,-3.230042857,4.008633027,1
3.422632375,1.753220955,-0.2735994065,-2.412288113,2.994624233,1
3.432646375,0.9980799508,-0.5312371568,-1.544598002,1.914199439,1
3.442660375,0.3018683553,-0.4798133802,-0.9959066869,1.145938704,1
3.452674375,-0.414239561,-0.4054891296,-0.8671667857,1.043069548,1
3.462688375,-1.067961195,-0.2454172888,-0.9143583477,1.427172711,1
3.472701375,-1.573405041,-0.06028588973,-1.115934968,1.929908978,1
3.482715375,-1.780823906,-0.1086055257,-1.143510291,2.119137732,1
3.492729375,-1.91862056,-0.1025164546,-1.067441085,2.197963818,1
3.502743375,-2.053144526,0.001265776008,-0.9070373413,2.244575859,1
3.512757375,-2.477663493,0.1595468339,-0.6151820505,2.557874221,1
3.522770375,-2.815786924,-0.008867521808,-0.5287217577,2.865009831,1
3.532784375,-3.096094256,-0.6413806464,-0.4849261124,3.198800105,1
3.542798375,-3.307992674,-0.531918869,-0.4180338192,3.376463458,1
3.552812375,-3.7331829,-0.6442278019,-0.3906115472,3.808446062,1
3.562826375,-4.100033702,-0.9271504475,-0.4942356107,4.232511447,1
3.572839375,-4.017098549,-0.7740140623,-1.112406465,4.23953142,1
3.582853458,-3.651607225,-0.8602226324,-1.522482663,4.048724708,1
3.592867458,-3.804825325,-1.081145058,-1.521226681,4.237888744,1
3.602881458,-4.318225477,-1.298093569,-1.372435069,4.713352969,1
3.612895458,-4.571385357,-1.76470401,-0.8180076358,4.967985589,1
3.622909458,-4.848998877,-1.604892882,0.1315787244,5.109381981,1
3.632922458,-4.795068253,-1.043760885,1.61516337,5.166320648,1
3.642936458,-3.741768951,-0.9025750387,2.447833191,4.561508952,1
3.652950458,-2.006515321,-0.5440106186,2.692160997,3.401438243,1
3.662964458,-0.3035418284,-0.2451983106,3.20489983,3.228566674,1
3.672977458,0.3065882277,0.05120552927,3.378831106,3.393098583,1
3.682991458,0.9644917899,0.686820821,4.00400254,4.175404602,1
3.693005458,0.2473097402,0.8785089223,4.192087587,4.290284183,1
3.703019458,0.5609298295,1.250796904,3.217321655,3.497183695,1
3.713033458,0.9639585239,1.880706336,2.700977429,3.429511836,1
3.723047458,0.3122062325,2.09476033,0.9487849993,2.320708199,1
3.733060458,-0.4812685329,2.103929641,-0.03603229702,2.158573061,1
3.743074458,-0.3267488426,1.952594052,0.3007527065,2.002458621,1
3.753088458,-0.3003252751,1.707553031,0.1125138777,1.737409566,1
3.763102458,-0.3152467847,1.037340203,0.2257520793,1.10743814,1
3.773115458,-0.492108686,0.4261763594,0.5378882915,0.8444649562,1
3.783129458,0.3166495317,0.5941098547,0.7837027524,1.03316187,1
3.793143458,1.144266189,0.769261153,0.7436868936,1.566581638,1
3.803157458,1.575174408,0.8762426877,0.6036758995,1.900894593,1
3.813171458,1.785763634,0.9648163104,0.4074478738,2.070226084,1
3.823185458,2.147800423,1.011868855,0.05452747867,2.374847044,1
3.833198458,2.817172129,1.061517271,-0.6864923537,3.08780658,1
3.843212458,2.083790953,1.087724491,-0.8997613585,2.516922686,1
3.853226458,2.536588808,0.3844415653,-1.602393197,3.024854055,1
3.863240458,2.613616519,0.3708953208,-1.01826337,2.829384198,1
3.873254458,2.708161318,0.7538785905,-0.7042462546,2.89800508,1
3.883267458,3.260096376,0.7450919795,-0.4690143768,3.376886869,1
3.893281458,2.59436807,0.625075247,-0.1005295707,2.670500129,1
3.903295458,2.353831744,0.6084273469,-0.1178939009,2.434051497,1
3.913309458,2.398548911,1.118095514,-0.1673999369,2.651640472,1
3.923323458,2.772954315,2.178279619,-0.9582514952,3.654096832,1
3.933336458,2.830119034,2.751547658,-1.618734995,4.266250256,1
3.943350458,3.38486134,2.763083338,-2.101032053,4.848324609,1
3.953364458,3.696905605,2.733493795,-2.360091919,5.168087968,1
3.963378458,3.70786738,2.689911574,-2.554124608,5.244755218,1
3.973392458,3.1793627,2.398410039,-2.498150382,4.701220397,1
3.983405458,1.875186857,1.701045373,-2.193240305,3.349654332,1
3.993419458,0.8846416283,0.9411920974,-2.022741783,2.399982853,1
4.003433458,-0.2358538753,0.1767297542,-1.521132248,1.549420464,1
4.013447458,-1.404029914,-1.028030266,-0.3401781428,1.773095428,1
4.023461458,-2.335939849,-1.563226792,-0.04779177859,2.811152261,1
4.033474458,-2.528809673,-2.342194908,0.2673079486,3.45719668,1
4.043488458,-2.284070953,-2.6092025728,-0.01284048557,4.997362036,1
4.053502458,-2.370698622,-2.8762102376,0.3713788855,6.548942894,1
4.063516458,-1.053042608,-3.1432179024,0.1168748774,5.806997987,1
4.073530458,1.002941326,-3.4102255672,-0.3007573843,4.423027151,1
4.083543458,1.592835338,-3.677233232,-0.2968970525,4.018372372,1
4.093557458,1.296302567,-3.337948836,-0.02826792553,3.580935891,1
4.103571458,0.5516964912,-2.68799164,0.1354868571,2.747366878,1
4.113585458,-0.7177878213,-2.087720282,-0.3000580573,2.227965478,1
4.123599458,-1.596175852,-1.34607816,-0.9823410004,2.307530629,1
4.133612458,-1.949303239,-0.6732402241,-1.389833752,2.486900355,1
4.143626458,-1.800948853,0.2235033864,-2.10994818,2.783029259,1
4.153640458,-1.837589845,-0.7986208999,-2.035863812,2.85644416,1
4.163654458,-1.278492533,-1.40412347,-1.142515533,2.216178607,1
4.173668458,-1.561681373,-1.378307428,-0.7305617948,2.207328841,1
4.183681458,-2.069172329,-1.415278203,-0.2089579258,2.515581431,1
4.193695458,-2.521536906,-1.494309754,0.6305660748,2.998120008,1
4.203709458,-2.544826366,-1.677887183,1.516840246,3.404739485,1
4.213723458,-1.839276182,-1.451987023,2.212772344,3.222974501,1
4.223737458,-1.054899099,-0.9357585722,3.340548216,3.625978296,1
4.233750458,0.2427588522,-0.3536735165,4.260957847,4.282496771,1
4.243764458,0.8378469461,0.4331798619,4.583116041,4.679164983,1
4.253778458,0.2700255883,1.095055438,4.507182344,4.646154637,1
4.263792458,-0.9243377906,1.698417342,5.089142269,5.44411525,1
4.273806458,-1.324241733,1.621275026,3.311442531,3.917626898,1
4.283819458,-2.141100683,1.295392156,2.663495607,3.654663025,1
4.293833458,-2.746317909,1.227086737,1.596746979,3.405525632,1
4.303847458,-3.024783368,1.350427319,-0.4701798731,3.345749166,1
4.313861458,-4.038989355,1.890377923,-1.289765965,4.642247295,1
4.323875458,-4.340330291,2.355226305,-2.470947965,5.52187847,1
4.333888458,-4.811141079,2.566998423,-3.607167217,6.53821189,1
4.343902458,-5.059684582,2.599865622,-3.36652798,6.610084716,1
4.353916458,-4.41994598,2.642706417,-2.277786366,5.630997283,1
4.363930458,-3.44678657,2.593955256,-0.7921680589,4.385940237,1
4.373944458,-2.158494103,2.750182918,0.05786799297,3.496562824,1
4.383957458,-0.9598505625,2.848904384,0.1181714974,3.008576706,1
4.393971458,-0.5509518483,2.706952699,0.5773603593,2.822142065,1
4.403985458,0.08946620017,2.714534199,0.832812932,2.840823384,1
4.413999458,1.045009119,3.080645328,0.5417445302,3.29786398,1
4.424013458,1.381955506,3.759584248,0.321281696,4.018394787,1
4.434026458,1.726485146,3.8127623355,-0.2895652288,4.271703449,1
4.444040458,2.021120496,3.865940423,-0.4072818129,4.381358452,1
4.454054458,2.04171629,3.793345048,-0.7187257147,4.452763129,1
4.464068458,2.1031543,3.7207496730000003,-1.148751296,4.694205999,1
4.474082458,2.070484006,3.648154298,-1.472075863,4.783278416,1
4.484095458,2.471516315,3.575558923,-1.627230122,4.641216691,1
4.494109458,2.936521402,3.254549122,-1.233235084,4.553692645,1
4.504123458,2.58740696,2.673711863,-0.9982293472,3.852255408,1
4.514137458,2.18851137,2.071531681,-1.416109823,3.329593451,1
4.524151458,1.768049202,1.850260177,-2.817991616,3.806643857,1
4.534164458,0.9178235538,1.023490781,-3.918081945,6.382946424,1
4.544178458,0.0781293992,-0.0825352031,-5.018172274,5.019459058,1
4.554192458,0.1374139532,-0.6984206736,-4.956622143,5.007472127,1
4.564206458,0.3967022994,-0.5447792351,-3.580952979,3.643814124,1
4.574220458,0.4492037909,0.1724425757,-2.200621684,2.252610993,1
4.584233208,0.530656711,0.729401561,-1.091550617,1.416017631,1
4.594247208,0.5957066562,0.7821761906,-0.6584929615,1.183333847,1
4.604261208,0.6693645434,0.5910049832,-1.027177962,1.361040171,1
4.614275208,-0.03263236038,-0.05685364723,-0.7016605427,0.7047160601,1
4.624289208,0.0730880395,-0.7047496998,-0.786984356,1.058942103,1
4.634302208,0.0278079872,-1.7405056,-0.9669218197,1.991248561,1
4.644316208,0.1031272968,-2.745425624,-1.447621492,3.105415444,1
4.654330208,0.2745741739,-3.082819907,-1.861990276,3.611949244,1
4.664344208,-1.021914444,-3.232076519,-2.654914818,4.305717181,1
4.674358208,-1.274659245,-3.352910399,-2.905185589,4.615936269,1
4.684371208,-0.9697728489,-3.615698889,-3.499418235,5.124418583,1
4.694385208,-1.106392531,-3.88720967,-3.324105846,5.232989884,1
4.704399208,-1.332575623,-3.222597597,-1.935055913,3.988149252,1
4.714413208,-1.670173097,-3.070614429,-0.3986315882,3.51810436,1
4.724427208,-1.743549222,-3.304715894,0.6835909653,3.798474383,1
4.734440208,-0.9005383073,-3.658187097,0.729468804,3.837372384,1
4.744454208,0.8551898608,-3.4841767157142858,-0.461324265,4.930202269,1
4.754468208,2.071718646,-3.3101663344285712,0.4185331714,6.641417853,1
4.764482208,2.097939022,-3.136155953142857,1.694479827,7.768683633,1
4.774496208,1.69929457,-2.9621455718571426,2.75069455,8.0298889685,1
4.784509208,0.9748154146,-2.7881351905714284,3.611796457,8.291094304,1
4.794523208,0.2553656319,-2.6141248092857143,4.312463631,6.904772651,1
4.804537208,0.3621214275,-2.440114428,4.049304428,4.741535268,1
4.814551208,1.149499447,-0.05611046612,3.497543033,3.682024529,1
4.824565208,1.370107293,1.369462929,3.029288648,3.595721405,1
4.834578208,1.305484596,1.555366965,2.433992978,3.169823062,1
4.844592208,1.594732467,1.072736031,1.534962521,2.459683755,1
4.854606208,1.660319516,0.4819397932,0.9825409752,1.988545606,1
4.864620208,1.706668348,-0.1908566272,0.7287881881,1.865549604,1
4.874634208,1.133828836,1.419498723,-1.823148392,2.573793798,1
4.884647208,1.60662088,2.011981298,-1.133640629,2.813261536,1
4.894661208,1.466876957,-0.272014811,2.207194101,2.664099447,1
4.904675208,0.4234577695,-1.588856308,3.256400936,3.648003276,1
4.914689208,0.7299678639,-1.814259455,3.187148852,3.739292481,1
4.924702208,0.09045788795,-1.218439874,2.534537605,2.813655847,1
4.934716208,-0.3195439035,-0.5545756602,1.201122175,1.361013207,1
4.944730208,-0.4828379256,0.2774240702,0.02440861702,0.5573978451,1
4.954744208,-0.5010492249,1.393038903,-0.5139655781,1.567089125,1
4.964758208,-0.4389061864,2.493396011,-0.8942217795,2.685013017,1
4.974772208,0.2169499733,3.099023711,-1.136007582,3.307798132,1
4.984785208,1.276273368,3.217281309,-0.5131083763,3.499007422,1
4.994799208,1.756388392,3.419843477,0.4432236242,3.869971159,1
5.004813208,1.940376441,3.614557512,0.8153989005,4.182697946,1
5.014827208,1.931827081,3.842141086,0.851684382,4.383990224,1
5.024841208,1.767633611,3.802475183,0.5844350517,4.324863707,1
5.034854208,0.6124512546,3.76280928,0.4617884974,4.366304165,1
5.044868208,-1.367898507,3.723143377,0.1195638839,5.488802339,1
5.054882208,-1.956373985,3.683477474,0.09749062657,5.943398799,1
5.064896208,-2.139651889,3.6438115709999996,-0.8494998622,5.658645958,1
5.074910208,-1.252553992,3.6041456679999997,-1.297143981,5.132897731,1
5.084923208,-0.4664242065,3.5644797649999997,-1.214623396,4.790485891,1
5.094937208,-0.4294698036,3.524813862,-0.6107334888,3.603019909,1
5.104951208,-0.2325446436,2.505414963,-0.2614792979,2.529733695,1
5.114965208,-0.142573244,1.743264901,-0.5899828899,1.845908843,1
5.124979208,-0.07131512716,0.7403200668,-1.189990246,1.40329485,1
5.134992208,0.1772788078,-0.1499413204,-1.220504526,1.242393445,1
5.145006208,0.5379148963,-0.7423110437,-0.6135389829,1.103090298,1
5.155020208,0.7481739007,-1.166496134,-0.3610702078,1.432078598,1
5.165034208,0.7225094479,-1.444881486,-0.5707326865,1.713312059,1
5.175048208,0.9770505859,-1.805536578,-0.9693759692,2.270303934,1
5.185061208,1.301605846,-2.260297344,-1.931696688,3.245700842,1
5.195075208,1.669712483,-2.783272896,-3.215159354,4.568566237,1
5.205089208,1.874275276,-3.371276504,-4.05807759,5.59878619,1
5.215103208,1.948580815,-3.813521889,-4.038725646,5.886528793,1
5.225116208,2.028027812,-3.864493822,-3.277067335,5.738138229,1
5.235130208,2.177094242,-3.9154657549999996,-2.609726951,5.586827823,1
5.245144208,2.357795279,-3.9664376879999996,-2.114252608,5.42757097,1
5.255158208,2.592098181,-4.017409621,-1.907216589,5.147429276,1
5.265172208,2.818837416,-3.40840223,-2.132863126,4.910412941,1
5.275186208,2.49926837,-2.964247144,-2.134688627,4.426059088,1
5.285199208,1.283753858,-3.054800634,-1.395986484,3.595637516,1
5.295213208,0.06150320694,-3.365305327,-0.2296108031,3.373689925,1
5.305227208,-0.6160952394,-3.512369233,0.9052285782,3.679096322,1
5.315241208,-1.458565725,-3.590351794,1.612438713,4.197379966,1
5.325255208,-2.274408137,-3.537593536,2.237554014,4.763837567,1
5.335268208,-2.314136167,-3.28634862,3.802259567,5.532855616,1
5.345282208,-1.460052964,-2.640654044,3.67497036,6.911221221,1
5.355296208,-0.3585138416,-1.702371229,3.547681153,7.581946347,1
5.365310208,0.5771811421,-0.6119350916,3.420391946,8.252671473,1
5.375324208,0.2637959647,-0.2012769502,3.293102739,6.026096737,1
5.385337208,-0.9420332193,-0.5830919462,3.165813532,3.354071872,1
5.395351208,-2.413303628,-1.210931464,1.119507836,2.92295864,1
5.405365208,-3.362524391,-1.374324304,-0.1941123569,3.637721427,1
5.415379208,-3.828835162,-1.061067327,-0.7475559231,4.042855727,1
5.425393208,-4.015476531,-0.406496678,-0.6788278234,4.092688424,1
5.435406208,-4.129387017,0.2299756694,-0.3977452234,4.154867892,1
5.445420208,-3.959054701,0.8792844093,-0.2133743278,4.061130853,1
5.455434208,-3.329340858,1.377867132,-0.1811362159,3.607747041,1
5.465448208,-2.409822342,1.862594878,-0.174082135,3.050706146,1
5.475462208,-1.599430705,2.326087875,-0.08183872662,2.824103568,1
5.485475208,-0.9182854839,2.740076591,0.1250649992,2.892561012,1
5.495489208,-0.4093469033,3.023406934,0.4802236354,3.088554535,1
5.505503208,0.1021394554,3.244603593,0.7033639097,3.321536653,1
5.515517208,0.6968299386,3.408568291,0.4721940927,3.510965255,1
5.525531208,1.046200781,3.512154055,0.2766633475,3.675092487,1
5.535544208,1.39509683,3.597583045,0.3948063397,3.878758948,1
5.545558208,1.591768514,3.564705906,0.623362159,3.953408097,1
5.555572208,1.696972495,3.445228579,0.5805055766,3.88410895,1
5.565586208,1.521783774,3.282059103,0.3500260965,3.634591597,1
5.575600208,1.293821301,3.184056845,0.0425338161,3.43715008,1
5.585613083,1.299608583,3.161640959,-0.2740262532,3.429292406,1
5.595627083,1.611320141,3.17976265,-0.5536037799,3.60745343,1
5.605641083,1.7594421,3.140366449,-1.073798908,3.756405467,1
5.615655083,1.615671054,3.003390745,-1.825967335,3.868450029,1
5.625669083,1.291187715,2.794513584,-2.708147285,4.100065073,1
5.635682083,0.9155318838,2.573298213,-3.502927734,4.441910066,1
5.645696083,0.778498292,2.413193262,-3.39062611,4.233899707,1
5.655710083,0.8322499913,2.348006163,-2.315266872,3.400916594,1
5.665724083,0.722219426,2.162920738,-1.260408264,2.605466563,1
5.675738083,0.6537426835,1.803497069,-0.7465371919,2.058470052,1
5.685751083,0.8838487458,1.195098959,-0.8389759704,1.706848208,1
5.695765083,1.016596036,0.6640688664,-1.153186555,1.674602697,1
5.705779083,1.013823579,0.2819813901,-1.543218205,1.867852827,1
5.715793083,0.9677317321,-0.149908576,-1.675897375,1.941033049,1
5.725807083,0.7233353671,-0.7457614857,-0.9851447403,1.431741739,1
5.735820083,0.5627684864,-1.511352049,-0.5817334919,1.714440795,1
5.745834083,0.2712818626,-2.48667873,-0.8563059481,2.643941155,1
5.755848083,-0.2569784036,-3.635247885,-1.351030605,3.886688665,1
5.765862083,-0.8636609414,-3.500324066,-2.061730578,5.191824652,1
5.775876083,-1.206445188,-3.365400247,-2.899051859,6.281079642,1
5.785889083,-1.46052922,-3.2304764280000002,-4.075142105,7.260920845,1
5.795903083,-1.508349942,-3.095552609,-4.126211394,8.155320646,1
5.805917083,-0.993441647,-2.96062879,-4.177280683,7.768602876999999,1
5.815931083,-0.9539809813,-2.825704971,-4.228349972,7.381885108,1
5.825945083,-1.247433878,-1.986769858,-4.279419261,4.88024333,1
5.835959083,-0.7803096132,-2.407936615,-3.139415692,4.032737621,1
5.845972083,-0.6511010577,-3.546411722,0.472012829,3.636449477,1
5.855986083,-1.518723195,-3.6694359700000003,1.4822207333333333,4.605856335333334,1
5.866000083,-3.497311775,-3.792460218,2.4924286376666664,5.575263193666666,1
5.876014083,-3.902976395,-3.915484466,3.502636542,6.544670052,1
5.886028083,-1.567186234,-1.477467434,1.270707404,2.500735895,1
5.896041083,0.3288231423,0.9298259872,1.904080435,2.14434683,1
5.906055083,0.4205650789,2.117110142,2.137331714,3.037633486,1
5.916069083,0.4127029127,1.960564392,3.112180531,3.701324639,1
5.926083083,0.1976361814,0.6966150534,3.580797443,3.65327838,1
5.936097083,-0.3866126364,-0.8894679201,3.08624813,3.235050236,1
5.946110083,-0.5510816565,-1.356644078,1.851590857,2.360627639,1
5.956124083,-0.2800547326,-0.8132126266,0.6786361809,1.095578612,1
5.966138083,0.001987760961,-0.3674331844,0.5494606622,0.660997818,1
5.976152083,0.3386587438,-0.1084752059,0.885496345,0.9542328815,1
5.986166083,0.4828525436,-0.1294263643,0.9689350891,1.090290314,1
5.996179083,0.4692001721,-0.3652445716,0.8064142151,1.001926287,1
6.006193083,0.229638285,-0.6047482789,0.4952275908,0.8146806671,1
6.016207083,-0.2050966439,-0.6318688345,-0.02231165931,0.6646959211,1
6.026221083,-0.518825199,-0.2008916187,-0.3607520096,0.6630829828,1
6.036235083,-0.4943361828,0.7626622778,-0.2061142056,0.9319361981,1
6.046248083,-0.0628841731,1.875754622,0.1468855655,1.882547526,1
6.056262083,0.4678804556,2.747631193,0.6384646399,2.859375175,1
6.066276083,0.8382919192,3.285437039,1.04445071,3.54791589,1
6.076290083,1.089868373,3.600592023,1.205290217,3.95029119,1
6.086304083,1.284071361,3.809151095,1.225140345,4.202313671,1
6.096317083,1.521486736,3.818867121,1.224078344,4.352515725,1
6.106331083,1.678248833,3.828583147,1.237847514,4.359682847,1
6.116345083,1.512178261,3.583538033,1.218798308,4.076014873,1
6.126359083,1.153297799,3.327531145,1.117967752,3.694916944,1
6.136373083,0.8875085181,3.124667845,1.00113936,3.399044061,1
6.146386083,0.6904436097,2.920399459,0.8175448287,3.110277307,1
6.156400083,0.5634198663,2.737207362,0.5519512837,2.848577945,1
6.166414083,0.6145496741,2.639133183,0.2111651766,2.717956216,1
6.176428083,0.8471846572,2.568214059,-0.2167630816,2.713011524,1
6.186442083,1.113754249,2.600884792,-0.7168614762,2.918722426,1
6.196455083,1.478991804,2.521179056,-1.112031513,3.127359057,1
6.206469083,1.787229238,2.190448844,-1.14918589,3.051701608,1
6.216483083,1.787699355,1.60463268,-1.072226081,2.630662234,1
6.226497083,1.711311329,0.9429518169,-1.036677348,2.211887095,1
6.236511083,1.643104728,0.2295347893,-1.184278832,2.038380661,1
6.246524083,1.371605057,-0.5168564415,-1.246379625,1.924033051,1
6.256538083,1.034472436,-1.24142177,-1.167145175,1.993361255,1
6.266552083,0.8494378817,-2.057070347,-1.494524932,2.680799862,1
6.276566083,0.5116693765,-2.787089959,-1.904104847,3.41398466,1
6.286580083,0.2930829138,-3.387453995,-2.085797718,3.988896374,1
6.296593083,0.2773158967,-3.762851087,-2.259482242,4.397864529,1
6.306607083,0.3538126802,-3.874354566,-2.476470076,4.611801248,1
6.316621083,0.4162083185,-3.693968548,-2.805637912,4.657277863,1
6.326635083,0.6496741909,-3.450013356,-2.936925445,4.57713882,1
6.336649083,0.903377569,-3.048786188,-2.688574023,4.164086758,1
6.346663083,1.126375464,-2.583092884,-2.346334444,3.666930031,1
6.356676083,1.126800556,-2.500977511,-2.204001521,3.518833714,1
6.366690083,0.8293459716,-3.138108839,-1.839749076,3.730980902,1
6.376704083,0.3568614185,-3.021862196333333,-1.257485534,4.325874084,1
6.386718083,0.03753123075,-2.905615553666667,-0.6190960304,4.728810386,1
6.396732083,0.3873297974,-2.789368911,0.3977977753,5.540779399,1
6.406745083,0.9555239153,-2.673122268333333,0.9521233939,5.976914146,1
6.416759083,1.024876863,-2.5568756256666667,1.783171709,4.822464584,1
6.426773083,1.226352619,-2.440628983,3.169649305,4.18417104,1
6.436787083,1.307927709,-1.321403494,4.327862273,4.71032631,1
6.446801083,1.102495435,-0.8526906878,4.945907121,5.138538201,1
6.456814083,0.5927967162,-0.8738453293,5.402934852,5.505153823,1
6.466828083,-0.5220851679,-1.057832063,5.4359710355,5.653329861,1
6.476842083,-2.077868455,-1.226532421,5.469007219,5.977621522,1
6.486856083,-2.672570778,-1.459892458,4.969100686,5.828025582,1
6.496870083,-3.072610961,-1.635037032,3.989379823,5.294283293,1
6.506883083,-3.334604521,-1.637768267,3.068347464,4.818363661,1
6.516897083,-3.484749033,-1.490052397,2.235272284,4.40001979,1
6.526911083,-3.57176408,-1.255806506,1.518788538,4.079370937,1
6.536925083,-3.806052656,-0.8514955169,0.6025123036,3.946403744,1
6.546939083,-3.834286813,-0.3593172491,-0.9029374199,3.955522751,1
6.556952083,-4.004732857,0.2056910133,-1.885085024,4.430997585,1
6.566966083,-4.079983307,0.8908180422,-2.894790409,5.081302203,1
6.576980083,-3.606742709,1.726827793,-3.38165882,5.236997572,1
6.5869945,-2.638090917,2.687489657,-3.636321434,5.23497449,1
6.5970085,-1.511429232,3.516863987,-3.278665963,5.040079477,1
6.6070225,-0.6447531742,3.539470151083333,-2.718986853,4.983946269,1
6.6170355,0.0670178622,3.5620763151666663,-1.694328969,4.908454017,1
6.6270495,0.8478997716,3.5846824792499996,-0.7541424461,5.034189583,1
6.6370635,1.209334882,3.6072886433333333,0.09779131964,5.287120285,1
6.6470775,1.585495328,3.6298948074166666,1.054250936,5.699894445,1
6.6570915,2.036806821,3.6525009715,1.63674325,6.16226365,1
6.6671045,2.259429032,3.675107135583333,1.830971674,6.344236756,1
6.6771185,2.222187531,3.6977132996666664,1.803942335,6.296051697,1
6.6871325,2.161016884,3.72031946375,1.209079067,5.760691346,1
6.6971465,1.953520543,3.7429256278333334,0.6178672381,5.142879961,1
6.7071605,1.850289997,3.7655317919166666,0.2734625816,4.67006714,1
6.7171735,1.837825195,3.788137956,-0.01812037513,4.210453535,1
6.7271875,1.735363559,3.267321196,-0.3834839375,3.719399737,1
6.7372015,1.40616941,2.737848217,-0.7922170293,3.178165051,1
6.7472155,1.164727059,2.297731218,-1.391513364,2.927877613,1
6.7572295,1.044776984,1.860307447,-2.106263119,2.998107248,1
6.7672425,1.09147548,1.485199792,-2.665836833,3.240960223,1
6.7772565,1.234403358,1.218667331,-2.816609627,3.307898351,1
6.7872705,1.186462036,0.8126857924,-2.715491388,3.072790888,1
6.7972845,1.104958282,0.399740805,-2.46108839,2.72721132,1
6.8072985,0.8296707845,-0.1783728218,-2.188115805,2.346917394,1
6.8173115,0.1862221241,-1.011173036,-1.729263889,2.011840746,1
6.8273255,0.08021707445,-1.803832115,-1.684207292,2.469169755,1
6.8373395,-0.4392349461,-2.691013774,-1.976956622,3.367913294,1
6.8473535,-0.5130560437,-3.637389135,-1.852250423,4.113958903,1
6.8573675,-0.379084931,-3.6748514271999997,-2.048911142,5.035188344,1
6.8673805,-0.2526926869,-3.7123137194,-2.359136192,5.765190761,1
6.8773945,0.0601660949,-3.7497760116,-2.887128217,6.306628997,1
6.8874085,-0.1741847536,-3.7872383038,-3.370698799,6.096786067,1
6.8974225,-0.4615148842,-3.824700596,-4.110402862,5.633537283,1
6.9074365,-0.6925681955,-3.321526639,-4.208068905,5.405555829,1
6.9174495,-1.130210945,-3.661394879,-3.149643642,4.960185915,1
6.9274635,-1.300765162,-4.065287207,-1.84202028,4.648826604,1
6.9374775,-1.64348889,-4.07067834,-0.3197326224,4.401557319,1
6.9474915,-2.009072893,-3.613048931,1.360455147,4.352164366,1
6.9575055,-2.335354835,-2.886839365,2.756371611,4.624425173,1
6.9675195,-2.75062526,-1.950292588,3.986381079,5.221189003,1
6.9775325,-3.078771003,-0.9927975762,4.56368165,5.593895612,1
6.9875465,-3.093172695,-0.2003735554,4.779556467,5.696668052,1
6.9975605,-2.741005713,0.6133232206,4.541581514,5.339966324,1
7.0075745,-2.431878917,1.162490206,3.602147674,4.498987265,1
7.0175885,-2.108567945,1.344878311,2.730549138,3.70279017,1
7.0276015,-1.729451731,1.353993536,1.869937373,2.884608737,1
7.0376155,-1.279514919,1.269242823,1.102585043,2.112777685,1
7.0476295,-0.7872506967,1.18877578,0.4269123776,1.488356709,1
7.0576435,-0.2599075663,1.086776365,-0.02211767793,1.117642162,1
7.0676575,0.1853389022,0.8893837202,-0.1719033162,0.9246105453,1
7.0776705,0.4597507793,0.4151903182,-0.02919514775,0.6201662165,1
7.0876845,0.4128175181,-0.3990578502,0.05012817979,0.5763491177,1
7.0976985,-0.04639531732,-1.137352442,0.400109472,1.206569804,1
7.1077125,0.1243042034,-1.457526675,1.043355088,1.796781952,1
7.1177265,0.5506480855,-1.552518786,1.116692182,1.990107868,1
7.1277395,1.060585224,-1.289445537,1.045138489,1.969727208,1
7.1377535,1.557118791,-0.6617866981,0.9037032589,1.918139761,1
7.1477675,1.797936075,0.1313635468,0.6193666103,1.906159886,1
7.1577815,1.827458082,0.915771035,0.3971909805,2.082306487,1
7.1677955,1.947304368,1.517866432,0.3913380638,2.499811651,1
7.1778085,2.2087977,2.055133749,0.3764427204,3.040406408,1
7.1878225,2.335514172,2.526375477,0.4213936293,3.466233126,1
7.1978365,2.374180055,2.968525552,0.6131986749,3.850310053,1
7.2078505,2.372859753,3.350782598,0.8272278178,4.18837836,1
7.2178645,2.26587588,3.619218328,0.9349123339,4.371154982,1
7.2278775,2.131090835,3.794376935,1.002590347,4.465874145,1
7.2378915,1.975986131,3.799892029,0.9686054523,4.517586197,1
7.2479055,1.753927299,3.8054071229999997,0.77974141,4.403865941,1
7.2579195,1.460322229,3.810922217,0.4677632189,4.107854864,1
7.2679335,1.07896887,3.377597344,0.1358483613,3.548350662,1
7.2779465,0.8150983536,2.914523007,-0.1997316773,3.032939569,1
7.2879605,0.726813291,2.458836628,-0.4845235316,2.609386551,1
7.2979745,0.8185449949,1.918922276,-0.715074567,2.205359437,1
7.3079885,1.03446045,1.443532534,-0.8966553175,1.989443479,1
7.3180025,1.149812858,0.9252669132,-1.014173827,1.790736447,1
7.3280155,1.164912708,0.3633120668,-1.024579532,1.593355106,1
7.3380295,1.046351932,-0.2168305439,-1.051083645,1.498881142,1
7.3480435,0.8101413766,-0.9456508917,-1.368956999,1.850575025,1
7.3580575,0.5036271161,-1.693371779,-2.145204113,2.779037413,1
7.3680715,0.1382600453,-2.523347788,-3.025327159,3.941954378,1
7.3780855,-0.1466765276,-3.32066359,-3.419950773,4.769107251,1
7.3880985,-0.326337491,-4.045501984,-3.275017008,5.21520075,1
7.3981125,-0.3115507597,-3.9903996948000002,-2.961177356,5.48967395,1
7.4081265,-0.2178883052,-3.9352974056,-2.763447912,5.6933265,1
7.4181405,-0.1310489666,-3.8801951164000004,-2.559382424,5.61442419,1
7.4281545,0.4632023907,-3.8250928272,-2.218193737,5.105507081,1
7.4381675,1.316941484,-3.769990538,-2.240114948,4.578785702,1
7.4481815,1.793754146,-3.055568374,-2.350986197,4.252198034,1
7.4581955,1.443330805,-2.688435152,-2.03256452,3.666361398,1
7.4682095,0.7409170675,-3.178839959,-1.104217586,3.445762334,1
7.4782235,0.2045636702,-3.3053427155,-0.323291384,4.1987081,1
7.4882365,-0.6871320391,-3.431845472,0.6675731027,4.690838406,1
7.4982505,-1.107241035,-3.5583482285,1.966382371,4.894573244,1
7.5082645,-1.040858181,-3.684850985,3.107008084,4.931025427,1
7.5182785,-0.8473866785,-2.756156434,3.738876919,4.721616575,1
7.5282925,-0.7171756178,-1.679393426,4.25121814,4.626830321,1
7.5383055,-0.5592624959,-0.8466569459,5.017169477,5.118749074,1
7.5483195,-0.264271051,-0.4266450137,5.45184798,5.474898314,1
7.5583335,-0.9017245612,-0.4570879573,5.406960075,5.5006594,1
7.5683475,-2.059173591,-0.8680665261,4.824300238,5.316729084,1
7.5783615,-3.233293616,-1.323076383,3.811170139,5.170080904,1
7.588374083,-4.460193242,-1.504492096,2.059733315,5.13802701,1
7.598388083,-5.318298744,-1.319206111,0.02046160027,5.479509556,1
7.608402083,-5.36253293,-0.4439416623,-0.6852561061,5.424335863,1
7.618416083,-5.159466732,0.7779936773,-1.253307552,5.366204519,1
7.628430083,-4.940006111,1.65008835,-1.516386648,5.424562692,1
7.638443083,-4.687589412,2.558462073,-1.130324088,5.458649578,1
7.648457083,-2.990270178,3.041050322,-1.601577072,4.55573835,1
7.658471083,-0.8842510343,3.272715252,-1.675411033,3.781476847,1
7.668485083,1.272228411,3.196387453,-0.4938757145,3.475538966,1
7.678499083,3.681153206,1.709072138,3.557888052,5.397257071,1
7.688513083,5.093312504,1.573200973,2.443874187,5.864240326,1
7.698526083,5.088964514,2.283079265,0.6781578056,5.618710597,1
7.708540083,2.445573388,2.5686286263333336,-0.3621660125,5.280824774,1
7.718554083,2.470715246,2.8541779876666666,0.254567889,5.411260408,1
7.728568083,2.561133665,3.139727349,1.462348874,4.307639459,1
7.738581083,3.320668268,3.018973575,0.2532757274,4.495018107,1
7.748595083,3.890134447,3.094779217,0.1423363587,4.973033688,1
7.758609083,3.96116233,2.636801314,-0.4780602387,4.782475276,1
7.768623083,3.288682244,3.25874333,-1.50929328085,8.378220477,1
7.778637083,1.504993787,3.346028811,-2.540526323,4.462643735,1
7.788651083,1.983367363,2.46675902,0.9030603576,3.291529154,1
7.798664083,2.607222004,2.579244831,-3.63687458,5.164975043,1
7.808678083,1.537570379,3.574269027,-4.756265545,6.145045458,1
7.818692083,1.890818803,3.634590463,-3.06671726,5.540369672,1
7.828706083,2.493478457,3.694911899,-2.257688316,5.274705728,1
7.838720083,3.09441669,3.755233335,-1.188771687,5.009028865,1
7.848733083,2.841386619,2.372643406,1.010953181,3.837309081,1
7.858747083,0.1216273481,0.9691911972,-3.947823662,4.066870597,1
7.868761083,-0.1845164913,-0.6396900702,-2.4368271233999996,6.25312856,1
7.878775083,1.666234851,-1.561914092,-0.9258305848,2.464361273,1
7.888789083,-0.9674346936,-2.188295315,-1.962903278,3.0947626,1
7.898802083,-0.2178596538,-1.687975384,-3.376693364,3.781373005,1
7.908816083,1.403514774,-0.639766084,3.709280652,4.017202673,1
7.918830083,-0.3147392464,-1.441649145,1.644589044,2.209544337,1
7.928844083,-1.90116779,-2.917342535,-3.333185402,4.82031652,1
7.938858083,-1.521916214,-3.405145916,-1.667951009,4.085744515,1
7.948871083,-2.864366176,-3.817430753,-2.335275021,5.313273997,1
7.958885083,-3.898189571,-3.815017607,-3.52723227,6.495506813,1
7.968899083,-3.257170429,-3.565268408,-3.440168399,5.929169979,1
7.978913083,-3.245309937,-3.373493768,-5.020203012,6.864031984,1
7.988927083,-2.992048901,-2.805467758,-4.815586717,6.325573602,1
7.998940083,-2.33559194,-2.06301755,-2.549916952,4.026550333,1
8.008954083,-2.015235858,-2.013815569,-0.02527283549,2.849081857,1
8.018968083,-2.371245922,-3.147314111,-1.732434103,4.304616273,1
8.028982083,-3.04455105,-3.461824731,-1.258627056,4.778876817,1
8.038996083,-3.107485217,-2.096162492,2.590691048,4.556538343,1
8.049009083,-2.912878186,-0.5583354199,4.450198889,5.347977928,1
8.059023083,-3.756165966,-0.0907183814,3.774526223,5.325792035,1
8.069037083,-4.168994594,0.04720398724,3.176094106,5.241213401,1
8.079051083,-3.644408133,0.2600584245,2.486175284,4.419322184,1
8.089065083,-1.806413661,0.6543712592,1.345696921,2.345683752,1
8.099078083,0.07625412405,1.023010724,1.343774357,1.69059018,1
8.109092083,0.6308426481,1.190294886,2.112530018,2.505503431,1
8.119106083,0.03737423301,0.8623766005,2.217963502,2.380010994,1
8.129120083,-0.3922212857,0.5565637136,2.088972756,2.19713629,1
8.139134083,-0.4618294644,0.25241319,1.308510969,1.410389956,1
8.149147083,-0.1788025922,0.22699242,0.7993715362,0.8499945756,1
8.159161083,0.281007244,0.3312909597,0.5884054573,0.731395757,1
8.169175083,0.1214197719,0.4100558782,0.8547389674,0.9557548256,1
8.179189083,-0.1821834522,0.3450512123,0.9318626455,1.010256967,1
8.189203083,-0.4031994331,0.2923297924,0.707861588,0.8655024657,1
8.199216083,-0.2032714355,0.3020794398,0.7040212099,0.792601494,1
8.209230083,-0.08655224025,0.5031686944,0.7717025118,0.9253079444,1
8.219244083,0.0215341258,0.874566291,0.8203526616,1.199294962,1
8.229258083,0.3728167158,1.300708444,0.7684049014,1.556046546,1
8.239272083,0.6714620858,1.593406026,1.039159053,2.017338751,1
8.249285083,1.483623968,1.876734615,1.092649308,2.630048555,1
8.259299083,1.82074811,1.967584559,0.7165026033,2.774867322,1
8.269313083,2.039866084,1.978241109,0.5403798632,2.892490609,1
8.279327083,2.527602807,1.864959492,0.6072122955,3.199305648,1
8.289341083,2.783740674,1.85805393,0.3297900525,3.3630846,1
8.299354083,2.842982324,1.77751906,0.1389462161,3.355805202,1
8.309368083,2.598542982,1.703482785,-0.06808366343,3.10787944,1
8.319382083,2.523762356,1.660156086,0.05749238245,3.021390414,1
8.329396083,2.735887061,1.777088705,-0.2120245712,3.269262408,1
8.339410083,2.807915402,1.773735911,-0.0927297505,3.322518141,1
8.349423083,2.699213909,1.65177995,-0.07342114806,3.165363074,1
8.359437083,2.860449126,1.419782898,-0.3200042255,3.209416674,1
8.369451083,2.662182907,1.197136129,-0.7832802911,3.022231089,1
8.379465083,2.536348488,0.9445755887,-1.420107564,3.056467273,1
8.389479083,2.778509755,0.7343968374,-0.7872540589,2.979802699,1
8.399492083,3.072017176,0.5436086226,-0.6577581127,3.188329594,1
8.409506083,2.716928633,0.2277151358,-0.5659346075,2.784571307,1
8.419520083,2.391380224,-0.1793966693,-0.329944346,2.420691185,1
8.429534083,1.947413419,-0.9571874481,-0.6066967173,2.253155064,1
8.439548083,1.338430586,-1.693138475,-1.719620515,2.759566822,1
8.449561083,0.8462072951,-2.039747971,-2.400705218,3.261904982,1
8.459575083,0.02221883476,-2.452599987,-2.004506217,3.16761512,1
8.469589083,-0.7484897965,-2.599452808,-1.879202725,3.293750865,1
8.479603083,-1.526328523,-2.895004417,-2.099143403,3.888075662,1
8.489617083,-1.870170531,-2.997244737,-2.335687834,4.235144801,1
8.499630083,-2.016759058,-2.994825159,-2.592860365,4.445134385,1
8.509644083,-1.746210728,-2.870630298,-2.934958441,4.461362042,1
8.519658083,-1.417127677,-2.794619418,-2.383523905,3.93691945,1
8.529672083,-1.226013772,-1.833635373,-1.293010877,2.55679596,1
8.539686083,-0.7247974634,-1.466627866,-1.076940033,1.95860371,1
8.549699083,-1.429905013,-2.54201444,0.1500244971,2.920440567,1
8.559713083,-3.092366071,-3.652228199,-0.05866745353,4.785910635,1
8.569727083,-3.893717036,-3.8824041355,0.6723093474,5.78640693,1
8.579741083,-3.902490199,-4.112580072,1.941105004,5.992548142,1
8.589754708,-3.159089819,-3.537318133,1.640614107,5.018374508,1
8.599767708,-2.537080559,-2.989515302,1.015957082,4.050450382,1
8.609781708,-2.536544369,-2.144700229,1.094970799,3.497535913,1
8.619795708,-2.455559848,-1.470107544,2.196933407,3.607978208,1
8.629809708,-3.127646416,-1.18440791,4.126823305,5.31184194,1
8.639823708,-4.10478398,-0.7264475477,4.735279303,6.923873623,1
8.649837708,-4.319507772,0.1068806702,5.343735301,6.872050483,1
8.659850708,-4.417334613,0.9176123232,4.16236619,6.1384159,1
8.669864708,-4.600579335,1.74947172,2.507901199,5.524088155,1
8.679878708,-4.763739456,2.54378907,0.7825340402,5.4567789,1
8.689892708,-4.727732302,2.728058224,-0.6658247852,5.49882506,1
8.699906708,-3.628710113,2.152980471,-1.932716442,4.64093254,1
8.709919708,-1.863314086,1.383545948,-1.850026288,2.967951489,1
8.719933708,-0.1305753422,1.095769967,-0.5887549746,1.250757435,1
8.729947708,1.238549618,0.8705223566,-0.1226255409,1.518832233,1
8.739961708,1.705024111,0.8955998951,0.6306794377,2.02656432,1
8.749975708,1.384710714,1.766467237,0.8181506002,2.388974815,1
8.759988708,1.275800475,3.296223983,0.02969917774,3.534634555,1
8.770002708,1.711509842,3.3845126513333335,-0.4754792047,4.642819454,1
8.780016708,2.612030169,3.4728013196666665,-0.3122412793,5.477103393,1
8.790030708,3.346999449,3.561089988,-0.05289621513,5.694652454,1
8.800043708,3.79141766,3.6493786563333335,0.1915805125,5.842852914,1
8.810057708,3.975466374,3.7376673246666665,0.08455431975,5.788863803,1
8.820071708,3.920565696,3.825955993,-0.1531443886,5.480166771,1
8.830085708,4.081879267,3.60484938,-0.2196459782,5.450222175,1
8.840099708,4.2980175,3.453665527,-0.3936228998,5.527720958,1
8.850112708,4.264419984,3.278685844,-0.4485048294,5.397797258,1
8.860126708,4.023143985,2.996929572,-0.5034990621,5.041902983,1
8.870140708,3.740180263,2.850356832,-0.5972158957,4.740268905,1
8.880154708,3.363680971,2.675522745,-0.9833402896,4.409050891,1
8.890168708,3.070561219,2.531643233,-1.516147935,4.258669772,1
8.900182708,3.04412128,2.360062537,-1.973015453,4.327743005,1
8.910195708,2.849969162,1.908123638,-2.921391732,4.505306836,1
8.920209708,2.425182393,1.172082564,-3.154773989,4.148238915,1
8.930223708,1.968406093,0.4438942999,-2.355250279,3.101430085,1
8.940237708,1.33841246,-0.0585744828,-1.558788171,2.055383041,1
8.950251708,0.8846094686,-0.7163991076,-1.498489344,1.88181612,1
8.960264708,0.3992110473,-1.245706025,-1.951951443,2.34973773,1
8.970278708,-0.2543176281,-1.236339955,-0.4450374305,1.338384196,1
8.980292708,-0.9202915174,-1.076027429,0.1758387116,1.426776351,1
8.990306708,-1.785453147,-1.824395603,-1.906277526,3.185930988,1
9.000320708,-2.439397559,-2.851112877,-2.314026093,4.408426233,1
9.010333708,-3.281239908,-3.645857658,-2.520567437,5.514714281,1
9.020347708,-3.661228234,-3.938007941,-3.195018035,6.254649388,1
9.030361708,-3.643252138,-3.965791571,-3.781361618,6.580234389,1
9.040375708,-3.402476662,-3.893312409,-4.436069677,6.812741234,1
9.050388708,-3.152656127,-3.838325778,-5.059593365,7.090237687,1
9.060402708,-3.140115019,-3.909982236,-3.9750790929999997,8.116465297,1
9.070416708,-2.478914212,-3.49659286,-2.890564821,6.931072805,1
9.080430708,-1.631056248,-2.691074585,-1.806050549,3.628228974,1
9.090444708,-1.601663464,-2.47028723,-1.626017118,3.363268725,1
9.100458708,-1.584356291,-3.342563751,-2.467564766,4.446548455,1
9.110471708,-3.066836543,-2.959775194,1.562605379,4.539547461,1
9.120485708,-4.306486022,-2.191389661,4.602496637,6.673154112,1
9.130499708,-5.152172915,-1.959725901,5.424254969,7.733560198,1
9.140513708,-4.443412026,-1.855883444,5.179185297,7.071928601,1
9.150526708,-3.796469069,-1.788045217,5.137302861,6.63341268,1
9.160540708,-2.649876273,-1.814400373,4.779205341,5.75801152,1
9.170554708,-0.561613369,-1.693174143,4.062880493,4.437256603,1
9.180568708,0.518090204,-1.590066682,3.990118911,4.326404793,1
9.190582708,-0.1397999096,-1.335954875,3.533837285,3.780519197,1
9.200595708,-0.6753335273,-0.4153265584,3.141441168,3.239941995,1
9.210609708,-0.8184944165,0.8289960158,1.654407688,2.023420941,1
9.220623708,-0.9867117941,1.740040746,0.9093624135,2.197335196,1
9.230637708,-0.6451770973,2.575258784,0.5302793097,2.707287838,1
9.240651708,-0.580018065,2.873801243,0.6683086824,3.006957106,1
9.250664708,-0.6175267839,2.875888699,0.5296267605,2.988742151,1
9.260678708,-0.3803841823,2.812113703,0.6004355188,2.900551399,1
9.270692708,-0.09596567273,2.590216547,0.415447011,2.625076644,1
9.280706708,0.3570999849,2.565264139,0.4223607953,2.624212099,1
9.290720708,1.041272163,2.769802081,0.31498366,2.975779896,1
9.300733708,1.45970067,2.868808306,0.04201345045,3.219091839,1
9.310747708,1.960922826,2.906163243,-0.02363090079,3.505932336,1
9.320761708,2.487590895,2.997188603,0.02953549225,3.895140605,1
9.330775708,2.914530024,3.066005654,0.122139016,4.23199644,1
9.340789708,3.315304617,3.107034397,0.1203451268,4.545260212,1
9.350802708,3.742403959,3.104365143,0.2411999846,4.868351647,1
9.360816708,4.045440003,3.129630377,0.2543001596,5.121019399,1
9.370830708,4.011419148,2.978175797,0.0004351059347,4.996099964,1
9.380844708,3.856757956,2.943856149,-0.2842788342,4.860214544,1
9.390858708,3.679562178,2.875512139,-0.4479119217,4.691308237,1
9.400871708,3.418060661,2.69705921,-0.3937047243,4.371758282,1
9.410885708,3.229870949,2.546566497,-0.1029378927,4.114324183,1
9.420899708,3.27062955,2.455758069,0.3367540864,4.103799296,1
9.430913708,3.348045516,2.226813848,0.1253701508,4.022912672,1
9.440927708,3.180760185,1.995032558,-0.1979083693,3.759861431,1
9.450940708,3.035848639,1.777493917,-0.1105698247,3.519671472,1
9.460954708,2.706874931,1.440446373,-0.205660754,3.073166769,1
9.470968708,2.262677161,0.9020663309,-0.7410480452,2.546091869,1
9.480982708,2.285156196,0.2755132002,0.113391691,2.304496483,1
9.490996708,2.015410105,-0.6869332337,-0.4708819044,2.180707437,1
9.501009708,1.531755908,-1.785220428,-1.722775673,2.91568931,1
9.511023708,1.110421336,-2.902477158,-1.801396165,3.591996289,1
9.521037708,0.8690880346,-4.099560662,-3.291895874,5.329004605,1
9.531051708,0.5469122994,-4.0545991988,-2.99955731,6.047143916,1
9.541065708,0.316606847,-4.0096377356,-2.365584794,6.304587723,1
9.551078708,-0.2845348692,-3.9646762723999998,-2.517335097,6.34876578,1
9.561092708,-0.9882613063,-3.9197148092,-2.487530669,5.498832571,1
9.571106708,-1.47835972,-3.874753346,-2.751600283,4.977003624,1
9.581120708,-1.576025763,-3.844042016,-3.156729298,5.217801844,1
9.591135,-1.561670263,-3.940080779,-2.935988721,5.15587823,1
9.601148,-2.057626417,-3.94334294,-2.482192161,5.093629152,1
9.611162,-2.336652625,-3.570235618,-2.074856408,4.744634545,1
9.621176,-2.266923993,-2.967345584,-1.485873392,4.018943137,1
9.63119,-3.038125545,-2.724872076,-0.4202943528,4.102655481,1
9.641204,-3.779489924,-2.629923819,0.3655726735,4.618948664,1
9.651217,-4.681797745,-3.427128523,2.789223608,6.437717637,1
9.661231,-4.524760829,-3.5340247856666664,4.47373861,7.744936628,1
9.671245,-3.735410104,-3.6409210483333334,4.047811342,7.288805165,1
9.681259,-3.189816352,-3.747817311,3.10819273,5.820818242,1
9.691273,-2.613579097,-2.068380032,2.248664747,4.020632387,1
9.701286,-2.284430557,-0.1945421273,2.025027605,3.058955117,1
9.7113,-2.518712116,1.256729781,2.082258983,3.501297322,1
9.721314,-3.028491672,2.157960545,2.03432117,4.238751956,1
9.731328,-3.729962838,2.785462679,1.83460718,5.003719478,1
9.741341,-4.131317475,3.163986862,1.388810781,5.385851124,1
9.751355,-4.440607116,3.222081288,0.6607529104,5.526064947,1
9.761369,-4.528356282,2.85575849,0.04474991083,5.353818237,1
9.771383,-3.979555331,2.288620087,0.03677781701,4.590859957,1
9.781397,-2.616790388,1.554272951,0.3731343658,3.066363578,1
9.79141,-1.163829803,0.876930905,0.3988632841,1.510827437,1
9.801424,0.05156484067,0.5113682449,0.3929564269,0.6469707629,1
9.811438,0.4905486488,0.4350889778,0.759724052,1.003554199,1
9.821452,0.4429429579,0.7356077957,1.24210531,1.510014203,1
9.831466,0.9253031659,1.27843523,1.109717331,1.929262849,1
9.841479,1.4748625,1.706402884,0.7885237817,2.389309513,1
9.851493,2.070088588,1.943267743,0.5718737707,2.896307286,1
9.861507,2.6381643,2.106924292,0.4944464028,3.412259968,1
9.871521,3.19657164,2.250888589,0.4993323362,3.941307204,1
9.881535,3.880897016,2.405612347,0.627798076,4.608954636,1
9.891548,4.400565383,2.57138325,0.594535532,5.131321468,1
9.901562,4.694856917,2.686448268,0.4396310949,5.42696612,1
9.911576,4.773251706,2.793239475,0.4480244806,5.54858942,1
9.92159,5.101272318,2.985425175,0.3203282344,5.919320309,1
9.931604,5.158545211,3.147748559,0.1597506825,6.045198919,1
9.941617,5.111796722,3.298916625,-0.1766454812,6.086420972,1
9.951631,5.193343745,3.513165624,-0.700102479,6.308985294,1
9.961645,5.00311277,3.604381603,-1.168217554,6.275941076,1
9.971659,4.518173355,3.513274966,-1.73422686,5.980345664,1
9.981673,4.025089354,3.214438977,-2.277025058,5.631945078,1
9.991686,3.635213386,2.797083435,-2.475036339,5.211934093,1
10.0017,3.133824584,2.251223634,-1.994828929,4.343754923,1
10.011714,2.566175135,1.699227181,-1.174987387,3.294423044,1
10.021728,1.96348683,1.071910989,-0.9500452204,2.430403181,1
10.031741,1.24676671,0.4366589552,-1.061059141,1.694386253,1
10.041755,0.0994488591,-0.3309372032,-1.42790892,1.469126744,1
10.051769,-0.7814242387,-0.9546076566,-1.562331583,1.990673151,1
10.061783,-1.450129947,-1.317047319,-0.5756725605,2.041785836,1
10.071797,-2.191094962,-2.035866589,-0.09407344066,2.99240701,1
10.08181,-3.244731063,-3.081730571,-2.158038751,4.968145955,1
10.091824,-4.075643796,-4.014412338,-2.771335806,6.356624963,1
10.101838,-4.975573554,-3.9661906429999996,-3.159331309,7.506753202,1
10.111852,-5.446035263,-3.9179689479999995,-4.375227059,8.392934462,1
10.121866,-4.943772887,-3.869747253,-4.670393336,7.959672141,1
10.131879,-4.097826962,-3.821525558,-4.344584141,7.090250684,1
10.141893,-3.391237144,-3.75310261,-3.133846804,5.950400352,1
10.151907,-2.574130272,-3.826523524,-2.265987854,5.574955265,1
10.161921,-3.307477534,-3.8999444380000003,-2.396352696,6.357280173,1
10.171935,-3.8779699,-3.973365352,-1.816424386,6.552442168,1
10.181948,-4.108161331,-4.046786266000001,0.7721936779,6.316135946,1
10.191962,-5.233513532,-4.12020718,4.44345471,8.006875849,1
10.201976,-6.799735268,-4.013621795,4.817703409,7.881999833333333,1
10.21199,-7.637800316,-3.741501734,5.191952108,7.757123817666667,1
10.222004,-6.034362221,-3.225503663,3.381391017,7.632247802,1
10.232017,-2.101840723,-2.077059054,2.452517542,3.840149871,1
10.242031,1.910865397,0.6618311369,1.032605347,2.270616838,1
10.252045,2.529857494,1.878791081,0.005561871529,3.151200691,1
10.262059,2.010287944,2.196325881,-0.17972711,2.98285213,1
10.272073,1.416551726,2.710729415,1.695746334,3.497174343,1
10.282086,1.218284338,3.458725707,2.350873053,4.355870103,1
10.2921,1.759489755,3.4648304925,1.564610828,4.881943423,1
10.302114,1.833325471,3.470935278,1.101185147,5.085728963,1
10.312128,1.308936061,3.4770400635,0.8939633325,4.543495306,1
10.322142,0.9336366177,3.483144849,0.5839825503,3.653082396,1
10.332155,0.540993163,2.328730232,0.6400924317,2.474949781,1
10.342169,-0.2878642738,1.399771387,0.03289533891,1.429443206,1
10.352183,-0.6086542189,0.3096714646,-0.6732238519,0.958950848,1
10.362197,0.1298397624,-0.06719795644,-0.0984297625,0.1762451344,1
10.37221,0.9903125095,0.7258926469,1.144372682,1.67845996,1
10.382224,1.525004128,1.46189513,1.566974273,2.630243968,1
10.392238,2.18680486,2.022779936,1.245392615,3.228739216,1
10.402252,3.445917381,2.559204084,1.421272184,4.521491652,1
10.412266,4.143911793,3.020623659,1.186905255,5.263545983,1
10.422279,4.013889012,3.271955114,0.7869415983,5.237964524,1
10.432293,3.629337519,3.228897387,0.7792993605,4.919875675,1
10.442307,2.938718201,2.895887346,0.4222812366,4.147354534,1
10.452321,2.302895479,2.57917408,0.2781719291,3.468839308,1
10.462335,1.992439903,2.410211767,0.2740823865,3.139117501,1
10.472348,2.360962424,1.929704542,1.02517836,3.216969669,1
10.482362,2.597623215,1.318571688,0.3158480246,2.930194129,1
10.492376,3.070698629,1.008686215,-0.05335927807,3.232566343,1
10.50239,3.461734684,0.4843207794,-0.1372340052,3.498143338,1
10.512404,3.444126379,-0.2779690307,-0.6366423552,3.513486414,1
10.522417,3.190171863,-1.160549515,-0.8836066711,3.50782446,1
10.532431,2.979237067,-1.873482978,-0.6902790105,3.58640169,1
10.542445,2.663081625,-2.308050385,-0.7270194054,3.59828536,1
10.552459,2.471038013,-2.243276684,-0.3369117419,3.354374556,1
10.562473,2.37723464,-1.318068243,-0.3733258621,2.743705638,1
10.572486,1.932401277,-0.6131869805,-0.7762493797,2.170883707,1
10.5825,1.138491479,-0.8273266357,-1.211365109,1.856889236,1
10.59251383,0.5572899377,-1.262315041,-1.947029111,2.386406021,1
10.60252783,0.1142452383,-1.781875235,-2.610402889,3.162646767,1
10.61254083,-0.3813817173,-2.228767403,-2.138993347,3.112579105,1
10.62255483,-0.9123942679,-2.710914187,-2.082605138,3.538186427,1
10.63256883,-1.464241033,-3.209302198,-2.329874532,4.227521465,1
10.64258283,-1.827839028,-3.528758978,-2.423248427,4.654596478,1
10.65259683,-1.96067198,-3.668199284,-2.908233157,5.075208439,1
10.66260983,-1.941440488,-3.818835838,-3.092816892,5.283768982,1
10.67262383,-1.958689774,-3.915385063,-2.811123769,5.202799503,1
10.68263783,-1.805387474,-3.837658026,-2.24828,4.800188123,1
10.69265183,-1.853525262,-3.577668014,-1.574076301,4.325850265,1
10.70266583,-2.346774155,-3.392877288,-0.5527827577,4.162275099,1
10.71267883,-2.703551958,-3.235966671,1.356397326,4.429501913,1
10.72269283,-3.054657962,-2.818485999,3.138538902,5.208188268,1
10.73270683,-3.445574149,-2.851654914,4.307277735,6.209392761,1
10.74272083,-3.220121886,-2.730914004,3.597897041,5.547246107,1
10.75273483,-2.318571864,-1.675198048,2.071329513,3.531638422,1
10.76274783,-1.786630776,-0.8163467342,1.209964408,2.307051232,1
10.77276183,-1.956844393,-0.1322944236,0.9705488475,2.188311417,1
10.78277583,-2.476101701,0.8703562957,1.334326426,2.944321098,1
10.79278983,-3.474136044,1.925639557,1.121419948,4.127383149,1
10.80280383,-4.298225076,2.770328915,0.3476544658,5.12545849,1
10.81281683,-4.733869539,3.364865617,-0.1241116838,5.809237914,1
10.82283083,-4.744560589,3.431180059,-0.07029522657,5.855663344,1
10.83284483,-4.504802527,2.84691633,0.481726516,5.350723207,1
10.84285883,-4.095854112,1.884234254,1.34945902,4.706102344,1
10.85287183,-3.053367482,1.201950726,2.049557844,3.868904998,1
10.86288583,-2.10685588,0.4912520689,1.961259041,2.920052623,1
10.87289983,-1.22859064,0.028480618,1.816582553,2.193220983,1
10.88291383,-0.4125771976,0.2311334181,1.492352107,1.565489512,1
10.89292783,0.5613122374,0.6118450445,1.049950528,1.338589518,1
10.90294083,0.8887229848,1.101558126,0.602236315,1.538163655,1
10.91295483,1.103137459,1.584553927,0.36515986,1.964959319,1
10.92296883,1.57795242,2.180951212,0.2584703938,2.704309334,1
10.93298283,2.042253503,2.49391232,0.1466377898,3.226747692,1
10.94299683,2.841012397,2.674577835,0.2246150152,3.90834619,1
10.95300983,3.267246351,2.667274078,0.1316841204,4.219785591,1
10.96302383,3.620520503,2.608066927,0.06468314208,4.46255148,1
10.97303783,4.129991911,2.575891453,0.3038178901,4.876920675,1
10.98305183,4.578883826,2.624714534,0.3711380533,5.290845578,1
10.99306583,4.756336881,2.642821022,0.2338184595,5.446275292,1
11.00307883,4.909235138,2.777873577,-0.04434528351,5.640845483,1
11.01309283,4.958844085,2.898233834,-0.3882012884,5.7567868,1
11.02310683,4.992055686,2.978954646,-0.8575653653,5.876241069,1
11.03312083,4.848704177,2.954967613,-1.238035648,5.811583094,1
11.04313483,4.429665222,2.672167613,-1.858163273,5.496834041,1
11.05314783,3.875281935,2.70002024,-2.177698406,5.200989302,1
11.06316183,3.404851801,2.795130465,-2.306270492,4.972389132,1
11.07317583,3.267379083,2.628793552,-1.976814973,4.636175045,1
11.08318983,2.927013829,2.128886434,-1.614570608,3.96313079,1
11.09320283,2.192068523,1.373018036,-1.462863429,2.971584148,1
11.10321683,1.274940934,0.6086249828,-1.629773369,2.156863461,1
11.11323083,0.3641797936,0.01863156796,-1.925048404,1.959281862,1
11.12324483,-0.5228738111,-0.5365171194,-2.140407203,2.267728079,1
11.13325883,-1.272411429,-1.030768225,-2.109614596,2.670578163,1
11.14327183,-1.929339675,-1.471284004,-1.18856813,2.701799845,1
11.15328583,-2.640127795,-2.123748486,-0.8907566464,3.503431148,1
11.16329983,-3.224494434,-2.999521642,-1.29183471,4.58948051,1
11.17331383,-3.734311413,-3.788164853,-1.740580444,5.596864744,1
11.18332783,-3.974812655,-3.7735854056666667,-2.459497948,6.366083852,1
11.19334083,-3.635691104,-3.7590059583333333,-3.219324911,6.446421091,1
11.20335483,-3.320774102,-3.744426511,-4.096019003,6.467274713,1
11.21336883,-2.982898593,-3.369367973,-4.887273581,6.643475567,1
11.22338283,-2.513040317,-2.936556485,-4.770229865,6.139529998,1
11.23339683,-2.684847885,-2.486310355,-3.053875605,4.766162351,1
11.24340983,-3.120430952,-2.380368163,-1.461567686,4.188009315,1
11.25342383,-3.30019775,-2.664499574,-1.639351108,4.547343755,1
11.26343783,-3.724313843,-2.149902497,-0.4129186749,4.320080576,1
11.27345183,-3.869900157,-0.7355943471,2.447316882,4.637519401,1
11.28346583,-4.241699458,0.155265795,4.046072087,5.864027719,1
11.29347883,-4.629893181,-0.02213521957,4.292244544,6.313458962,1
11.30349283,-3.098020914,-0.5713612622,3.679555746,4.843894896,1
11.31350683,-0.9578019905,-0.3358921337,3.378564473,3.527733845,1
11.32352083,0.4909602928,0.003983123302,3.416248609,3.451349364,1
11.33353383,0.7923041528,0.5348413074,3.917112038,4.032067437,1
11.34354783,0.02925420463,0.9843039107,4.308798012,4.419892567,1
11.35356183,-1.078628855,1.000367966,3.975478945,4.238939622,1
11.36357583,-1.466254229,0.7527740514,2.606668857,3.084038386,1
11.37358983,-1.263420165,0.2390061092,1.264217141,1.80321918,1
11.38360283,-1.186387192,-0.1795644844,0.5251875544,1.309801489,1
11.39361683,-1.47615298,-0.8447250259,0.2530071209,1.719476837,1
11.40363083,-1.576943191,-1.613775972,0.6367923363,2.344467358,1
11.41364483,-1.074914703,-1.883154273,1.208794746,2.482518152,1
11.42365883,-0.4373226142,-1.876776715,1.206099472,2.27337147,1
11.43367183,0.04141816735,-1.578137192,0.8226412618,1.780160416,1
11.44368583,0.4475271749,-1.060749823,0.6359020977,1.31523467,1
11.45369983,1.181625804,-0.4448590904,0.6336497502,1.412675178,1
11.46371383,1.936838729,0.1827962404,0.5598182738,2.024390088,1
11.47372783,2.612327793,0.7260651398,0.3631670558,2.735565279,1
11.48374083,3.111674162,1.203566312,0.3990150194,3.360104305,1
11.49375483,3.574113491,1.58804413,0.5751251149,3.953092499,1
11.50376883,3.955205187,1.900230482,0.7975542216,4.459889762,1
11.51378283,3.885474801,2.59857748,1.009956815,4.782209962,1
11.52379583,4.051314701,3.260654785,0.8326541801,5.266719417,1
11.53380983,4.289067167,2.742202054,0.3886841588,5.105569962,1
11.54382383,3.839271272,2.187921093,0.1933965115,4.423166832,1
11.55383783,3.576749416,1.978449855,0.279884067,4.097039822,1
11.56385183,3.453987708,2.128499933,0.2871474051,4.067308285,1
11.57386483,3.389330367,2.147861819,0.2409321821,4.019815797,1
11.58387883,3.435237442,2.215960831,0.3016381212,4.099063825,1
11.59389296,3.422875843,2.135236511,0.3078395319,4.045995449,1
11.60390696,3.299611275,1.981809665,0.174230435,3.852967734,1
11.61392096,3.298954048,1.78745231,0.02735459045,3.752176947,1
11.62393396,3.050975386,1.437478911,-0.2233109399,3.380039083,1
11.63394796,2.671913259,1.062957732,-0.5076858146,2.920058987,1
11.64396196,2.236423747,0.698190878,-0.8283363768,2.484995539,1
11.65397596,1.72231842,0.3208004701,-1.203601395,2.125546989,1
11.66398996,1.16782813,-0.1508166486,-1.735061988,2.096904458,1
11.67400296,0.4885781372,-0.7501615155,-2.427876059,2.587669425,1
11.68401696,-0.2027907944,-1.494200996,-2.759360708,3.144492366,1
11.69403096,-0.7698151767,-2.211622197,-1.903267525,3.017667215,1
11.70404496,-1.17343444,-2.785117693,-0.9837555881,3.178302063,1
11.71405896,-1.684544238,-3.278406347,-1.271063207,3.898876651,1
11.72407196,-1.749803842,-3.628036514,-2.396043963,4.686735442,1
11.73408596,-1.533372663,-3.90987991,-3.382755758,5.392720014,1
11.74409996,-1.550134292,-3.9059303106666667,-3.308656332,5.561248217,1
11.75411396,-1.681676763,-3.901980711333333,-2.358860203,5.130738705,1
11.76412696,-1.711937274,-3.898031112,-2.44147449,4.907766647,1
11.77414096,-1.662082744,-3.385915008,-2.575093893,4.567061205,1
11.78415496,-2.071290776,-2.978120248,-1.414850918,3.893744831,1
11.79416896,-3.340062897,-2.893788196,0.8802702498,4.506096536,1
11.80418296,-4.85373746,-2.729181474,1.602468041,5.794402702,1
11.81419596,-5.087963471,-2.820239578,1.854487714,6.105755337,1
11.82420996,-4.537466828,-2.927227253,2.714044787,6.043451308,1
11.83422396,-3.883195556,-2.76231823,2.800997561,5.527675558,1
11.84423796,-2.911588874,-1.883889268,2.407123414,4.221449002,1
11.85425096,-2.251828237,-0.8258297485,2.7487293,3.648045771,1
11.86426496,-2.053720477,0.3067525345,3.411271459,3.993574574,1
11.87427896,-2.224494842,1.32921479,3.576207379,4.416384096,1
11.88429296,-2.790832762,2.432021297,3.303181,4.961298198,1
11.89430696,-3.49361078,3.395549465,2.876835948,5.657849196,1
11.90431996,-4.34139273,3.88546603,1.868927997,6.118613321,1
11.91433396,-4.700412356,3.6861078435,0.6917188874,6.143595642,1
11.92434796,-4.442765908,3.486749657,-0.01492794156,5.647637996,1
11.93436196,-3.635273028,2.764079996,0.08924590632,4.567637578,1
11.94437596,-2.210223543,2.118591242,0.6890325303,3.138197379,1
11.95438896,-0.9200523663,1.579035909,0.7803530288,1.98715918,1
11.96440296,-0.01960571408,1.096511979,0.769459666,1.339698131,1
11.97441696,0.4650220442,0.8876435888,0.726012661,1.237437282,1
11.98443096,0.7800062889,0.8958039629,0.7495664151,1.404537063,1
11.99444496,1.231306672,1.028472608,0.4574946311,1.668284557,1
12.00445796,1.7598248,1.216415568,0.1262891869,2.143035026,1
12.01447196,2.216194135,1.333147627,0.04317467093,2.586631611,1
12.02448596,2.678139374,1.427100103,0.07919936657,3.035674184,1
12.03449996,3.032967131,1.460411691,0.1849754977,3.371336213,1
12.04451296,3.505052612,1.451880019,0.3989800823,3.814778435,1
12.05452696,3.988386966,1.432549708,0.6912964261,4.29387005,1
12.06454096,3.923996258,1.335710462,0.7749839692,4.216926514,1
12.07455496,4.058712013,1.20630047,0.7259177899,4.295958644,1
12.08456896,4.062182336,1.266462471,0.5078727794,4.285228965,1
12.09458196,3.754041672,1.47667923,-0.2296201587,4.040561328,1
12.10459596,4.117392331,1.893469346,-1.101157153,4.663763807,1
12.11460996,4.168615694,2.447683648,-1.709331754,5.127409394,1
12.12462396,3.785088633,2.767667847,-1.920255003,5.066977457,1
12.13463796,3.339476421,2.76822918,-1.992308779,4.773310155,1
12.14465096,3.120468959,2.714672193,-1.766141986,4.497335784,1
12.15466496,2.971288362,2.490388203,-1.483491382,4.151064275,1
12.16467896,2.678928748,1.980450772,-1.384426539,3.607697512,1
12.17469296,2.260434753,1.319618924,-1.452062306,2.993233088,1
12.18470596,1.850595807,0.7539224446,-1.655420134,2.59490264,1
12.19471996,1.445336984,0.4468582535,-1.865071174,2.401493656,1
12.20473396,0.9052682662,0.2114060819,-1.982970045,2.190062411,1
12.21474796,0.564943943,-0.4347498393,-1.051183194,1.270100464,1
12.22476196,-0.2778924322,-0.9260311443,-0.02566226006,0.96716929,1
12.23477496,-1.478073791,-0.9209271097,-0.4521909142,1.799245813,1
12.24478896,-2.424447398,-1.184850544,-0.862623353,2.833008127,1
12.25480296,-3.094057086,-1.746628804,-1.284253356,3.777989957,1
12.26481696,-3.606094837,-2.72207009,-2.281051305,5.061302264,1
12.27483096,-4.475191058,-3.622029085,-3.474304444,6.724375143,1
12.28484396,-4.617299448,-3.6781298056666665,-4.151587433,7.502557623,1
12.29485796,-3.904102276,-3.7342305263333335,-4.394573157,7.218523165,1
12.30487196,-3.075683965,-3.790331247,-4.966161876,6.963419174,1
12.31488596,-2.298562692,-3.34463425,-4.656554146,6.176849135,1
12.32489896,-1.884228991,-2.82193761,-2.264512163,4.079419824,1
12.33491296,-2.958373616,-2.728208497,-2.375339996,4.673043564,1
12.34492696,-3.783492928,-2.882640479,-2.54662263,5.395342593,1
12.35494096,-3.668790438,-2.612223127,0.4801150234,4.529265214,1
12.36495496,-4.06180519,-1.40040581,2.538921847,4.990543255,1
12.37496796,-4.579891301,-0.4597461015,2.616757643,5.294732418,1
12.38498196,-4.26558358,0.09250178218,2.982734871,5.205810904,1
12.39499596,-3.602956052,0.1020502853,2.977467991,4.675149432,1
12.40500996,-2.81881929,0.1087131876,2.571786708,3.817282753,1
12.41502396,-1.307102374,0.3928896224,2.328595161,2.699117318,1
12.42503696,0.5635628307,0.6725297874,2.591793541,2.736291859,1
12.43505096,1.197550111,0.8403992558,3.310345008,3.619223847,1
12.44506496,0.332554543,0.7079241532,3.726096075,3.807301024,1
12.45507896,-0.5928509492,0.4150616795,3.398364315,3.474568817,1
12.46509196,-0.8510020119,0.3435742056,2.494295897,2.657773445,1
12.47510596,-0.8728314221,0.2734853858,1.939641007,2.144489726,1
12.48511996,-0.9478231323,0.1315319467,1.500552388,1.779698517,1
12.49513396,-0.780092243,0.05558889449,1.090169066,1.341679032,1
12.50514796,-0.6570106924,-0.1557557917,0.8778787386,1.107517041,1
12.51516096,-0.3908746719,-0.3237907362,0.7801974928,0.9307693473,1
12.52517496,0.009928572178,-0.2198675877,0.9270538223,0.9528216633,1
12.53518896,0.6460647047,0.08474311173,1.075156924,1.257196647,1
12.54520296,1.419737874,0.4753599215,1.098342304,1.856873314,1
12.55521596,2.024663324,0.8854941523,0.8703943026,2.375067938,1
12.56522996,2.643665945,1.277297947,0.6832215674,3.014506823,1
12.57524396,3.378666215,1.708309076,0.6528828505,3.841869507,1
12.58525796,3.937572908,2.130982661,0.5051783824,4.50563788,1
12.59527158,4.389534026,2.458106895,0.2265092938,5.036030673,1
12.60528458,4.640688311,2.725396571,0.3536314166,5.393406127,1
12.61529858,4.790478773,2.914142938,0.6728763811,5.647448855,1
12.62531258,4.666468685,2.929845051,0.7633129267,5.562604483,1
12.63532658,4.316985868,2.784458712,0.6372624524,5.176454456,1
12.64533958,3.718219875,2.831898342,0.3264219832,4.685227697,1
12.65535358,3.403081849,2.416142598,-0.3289549971,4.186516752,1
12.66536758,3.171892297,1.182961308,-0.6195709705,3.44153547,1
12.67538158,2.782923818,0.3838276076,-0.397844553,2.837299578,1
12.68539558,2.408527184,0.04328050554,-0.2292831398,2.419803124,1
12.69540858,2.107417213,-0.1211730194,-0.1738717814,2.118046649,1
12.70542258,2.017937272,-0.2421133196,-0.4034802456,2.072072875,1
12.71543658,1.995372866,-0.3156309468,-0.8148213418,2.178318064,1
12.72545058,1.784230494,-0.4952012783,-1.337112186,2.283981558,1
12.73546458,1.397362334,-0.7869065881,-1.55749272,2.235537306,1
12.74547758,0.8170776361,-1.227275602,-1.526719701,2.122426515,1
12.75549158,0.30781205,-1.676443505,-1.614092014,2.347446296,1
12.76550558,0.008820524812,-2.004332555,-1.93449765,2.785625235,1
12.77551958,-0.1843018985,-2.344029472,-1.882116831,3.011777734,1
12.78553258,-0.3146638173,-2.338802061,-1.642618532,2.875274603,1
12.79554658,-0.5230334401,-2.093825945,-1.771717014,2.7922486,1
12.80556058,-0.8784611213,-1.903482118,-2.288018993,3.10321914,1
12.81557458,-1.16886718,-1.849184874,-2.379316103,3.232163408,1
12.82558858,-1.31687658,-1.925504487,-2.537134938,3.446561352,1
12.83560158,-1.374627775,-2.186042383,-2.849689665,3.845661712,1
12.84561558,-1.536523728,-2.642680104,-2.856472435,4.183789917,1
12.85562958,-1.743972414,-3.031145139,-1.993109702,4.02514185,1
12.86564358,-1.937031687,-3.229152911,-1.568032619,4.079000683,1
12.87565658,-1.99525066,-3.05284591,-1.58540952,3.976734426,1
12.88567058,-2.39660822,-2.70209834,-1.044632997,3.759830382,1
12.89568458,-3.543754748,-2.544036992,0.3045092502,4.372990717,1
12.90569858,-4.811249253,-2.091979979,1.468031198,5.447900072,1
12.91571258,-4.494628372,-2.295695218,2.346638499,5.565843421,1
12.92572558,-4.167488351,-2.654886752,2.672921319,5.61790808,1
12.93573958,-3.836318429,-2.723783324,2.269363013,5.223633139,1
12.94575358,-3.34203107,-2.437055749,2.151618801,4.662389501,1
12.95576758,-2.745678223,-1.762496978,2.478794052,4.097507102,1
12.96578058,-2.167270482,-0.5465310609,3.16998172,3.878729385,1
12.97579458,-2.187090788,1.021932498,3.618876851,4.350170319,1
12.98580858,-2.885500352,2.218106174,3.215858681,4.856732888,1
12.99582258,-3.676152667,3.215834708,2.215075124,5.36304476,1
13.00583658,-4.238648965,3.31027659625,0.9525826196,5.853972771,1
13.01584958,-4.312485266,3.4047184845,0.1499319649,6.050328728,1
13.02586358,-3.880570741,3.49916037275,-0.2602641003,5.615957478,1
13.03587758,-2.958694628,3.593602261,-0.01171445802,4.65488865,1
13.04589158,-1.684274096,2.976991736,0.6113063698,3.474615735,1
13.05590458,-0.5551562887,2.097797374,1.046298576,2.409085519,1
13.06591858,0.1983784854,1.565681453,1.2464992,2.01108744,1
13.07593258,0.659218601,1.558335012,1.325927631,2.149665382,1
13.08594658,1.028961436,1.792606046,0.9227024706,2.263532178,1
13.09596058,1.432236298,2.004293379,0.2881183353,2.480222759,1
13.10597358,1.83202388,2.127536312,-0.09231116295,2.809135741,1
13.11598758,2.231258317,2.154350474,-0.04231980801,3.101859218,1
13.12600158,2.511755099,2.167382163,0.1464001004,3.320827022,1
13.13601558,3.041616333,2.19010152,0.3980188,3.769136976,1
13.14602858,3.611618702,2.153835334,0.7388448143,4.269506758,1
13.15604258,4.116815795,2.095930942,0.9628074995,4.718908464,1
13.16605658,4.338377906,1.961884108,0.9342749874,4.852152292,1
13.17607058,4.48493135,1.814998543,0.8503884928,4.912432138,1
13.18608458,4.54530619,1.669049701,0.6377311067,4.883875125,1
13.19609758,4.641524463,1.568783401,0.2305346632,4.904893162,1
13.20611158,4.69927098,1.57676719,-0.1805514944,4.96003441,1
13.21612558,4.505582546,1.571345066,-0.6268096773,4.812721659,1
13.22613958,4.193650548,1.768180472,-1.16362749,4.69757342,1
13.23615258,3.73022187,2.025243952,-1.635035863,4.548572363,1
13.24616658,3.267172676,1.981054205,-2.048445704,4.335334227,1
13.25618058,2.910719393,1.627747309,-2.298395316,4.050243168,1
13.26619458,2.461703517,1.113722674,-2.305150166,3.551630567,1
13.27620858,1.956721017,0.6561844808,-2.129003963,2.965129523,1
13.28622158,1.440800714,0.3267172676,-1.797849098,2.326996401,1
13.29623558,0.7579611164,-0.006812590957,-1.599619278,1.770122397,1
13.30624958,0.08179202199,-0.3138416988,-1.91912649,1.946338365,1
13.31626358,-0.5311014283,-0.6258865482,-1.957296821,2.122454604,1
13.32627658,-1.162469156,-0.9550853741,-2.045440235,2.539162926,1
13.33629058,-1.553757811,-1.402642955,-2.367536302,3.160189668,1
13.34630458,-2.033072205,-2.089465676,-2.059168474,3.569233,1
13.35631858,-2.738999534,-2.894543071,-1.882114638,4.407136661,1
13.36633258,-3.334851859,-3.761043128,-2.157364275,5.470000269,1
13.37634558,-3.546436865,-3.7291066594999998,-2.691165801,6.326150804,1
13.38635958,-3.542494673,-3.6971701909999997,-3.474912554,6.77032773,1
13.39637358,-2.795325177,-3.6652337225,-4.562966828,6.756193882,1
13.40638758,-2.331032281,-3.633297254,-4.928757091,6.962131426,1
13.41640058,-2.128978236,-3.333583598,-5.294547354,6.608900031,1
13.42641458,-2.032130803,-2.756685607,-2.948319329,4.519010733,1
13.43642858,-2.841521105,-2.113970772,-0.6059165525,3.593083562,1
13.44644258,-3.669430708,-2.589530668,-0.3096042216,4.501804702,1
13.45645658,-3.437924237,-1.982832928,2.14780627,4.512651244,1
13.46646958,-3.354244734,-0.4932939166,3.742053126,5.049480985,1
13.47648358,-3.503902465,0.3057128996,3.472875384,4.94283889,1
13.48649758,-3.207354491,0.9006752783,3.102200503,4.552140897,1
13.49651158,-2.630197468,1.235540641,2.924487247,4.122756973,1
13.50652458,-1.712036676,1.387825525,2.752946312,3.526449017,1
13.51653858,-0.8704282165,1.493408698,3.039229499,3.496402547,1
13.52655258,-0.7271685094,1.346138971,3.611377212,3.922105243,1
13.53656658,-1.466824332,1.001022854,4.09842104,4.466617892,1
13.54658058,-2.38882616,0.5223148173,3.640442551,4.385444694,1
13.55659358,-2.683637511,0.003325896263,2.269609619,3.514690481,1
13.56660758,-2.271904067,-0.3371709198,1.032510842,2.518195973,1
13.57662158,-1.868002968,-0.4831805724,0.5753215814,2.013428289,1
13.58663558,-1.685131883,-0.6079928988,0.7809542687,1.954281044,1
13.59664946,-1.563206327,-0.8631852704,0.9670056541,2.030714841,1
13.60666346,-1.175732396,-1.022172818,0.8615077043,1.780275108,1
13.61667746,-0.5066887182,-0.8353507698,0.6501519084,1.173559487,1
13.62669146,0.1735476995,-0.5505925369,0.6696161199,0.8841135072,1
13.63670546,0.9261024803,-0.1981387496,1.035900911,1.403572394,1
13.64671846,1.734981735,0.2391727549,1.282947088,2.171017839,1
13.65673246,2.6192316,0.7947687542,1.33522485,3.045464981,1
13.66674646,3.422800999,1.403849235,1.236586854,3.900705885,1
13.67676046,4.141962331,1.984733273,0.9819511373,4.696727174,1
13.68677346,4.662617124,2.490661853,0.7218459351,5.33520913,1
13.69678746,4.997701172,2.888334498,0.5849743842,5.801869372,1
13.70680146,5.160641438,3.198852639,0.4294431257,6.086813588,1
13.71681546,4.922274429,3.280051169,0.4144822935,5.929529222,1
13.72682846,4.489995623,3.076553446,0.456193918,5.461991825,1
13.73684246,3.915567496,2.572172039,0.3934544635,4.701334303,1
13.74685646,3.686495807,2.107171045,0.3648240106,4.261867866,1
13.75687046,3.642438206,1.84872996,0.2589872146,4.092949172,1
13.76688446,3.136714278,2.136176158,0.1965741078,3.800114001,1
13.77689746,2.853637705,2.160179563,0.00815109171,3.579062773,1
13.78691146,3.145989132,1.249358196,-0.8755856068,3.496397242,1
13.79692546,3.357688159,0.7329227543,-1.218481389,3.646360163,1
13.80693946,3.357290549,0.2970023024,-0.9544481738,3.502938982,1
13.81695246,2.728533018,0.03775430202,-0.7107582255,2.819839547,1
13.82696646,2.036122112,-0.09823790073,-1.071812025,2.303090306,1
13.83698046,1.264307188,-0.4040355849,-1.541301634,2.034042317,1
13.84699446,0.546478436,-0.8835815281,-2.029362877,2.279839618,1
13.85700846,-0.008303046227,-1.495013174,-2.63957114,3.033557175,1
13.86702146,-0.6309759647,-2.151109947,-2.791422161,3.580145577,1
13.87703546,-1.274564373,-2.660924002,-2.164634411,3.659326853,1
13.88704946,-1.761027573,-2.993729975,-1.628777003,3.836215818,1
13.89706346,-1.917520698,-3.136851688,-1.86697722,4.123387937,1
13.90707646,-1.891999941,-3.219643584,-2.629822662,4.567464922,1
13.91709046,-1.843290296,-3.367903245,-3.185731487,4.988925384,1
13.92710446,-2.028548214,-3.618371651,-3.187640311,5.231507623,1
13.93711846,-2.292213786,-3.827796696,-2.605037484,5.166477706,1
13.94713246,-2.326364449,-3.754619962,-2.345672393,5.00113203,1
13.95714546,-2.273092221,-3.374034051,-2.50827659,4.779383378,1
13.96715946,-2.678645158,-3.008417596,-1.691466026,4.368841223,1
13.97717346,-3.90603595,-2.308216445,-0.6931125712,4.589704243,1
13.98718746,-4.898421882,-1.777202725,-0.1833571346,5.214077704,1
13.99720046,-4.79690194,-2.789180923,1.660684236,5.792035097,1
14.00721446,-4.499886189,-3.270686268,3.186769953,6.411073787,1
14.01722846,-3.789162973,-2.931310948,2.632131143,5.466118757,1
14.02724246,-2.617159932,-2.50758311,2.368069714,4.329578887,1
14.03725546,-1.03472679,-1.828070578,2.829542499,3.52403353,1
14.04726946,-0.3309436351,-0.6439181918,3.709482965,3.77947327,1
14.05728346,-0.7675359321,0.7306990582,4.535020938,4.657193085,1
14.06729746,-1.767223867,1.781064227,4.102626357,4.809034519,1
14.07731146,-2.97310743,2.768540252,3.065426195,5.089304537,1
14.08732446,-3.750688294,3.678091019,1.620210979,5.497372085,1
14.09733846,-4.025470008,3.5786645255,0.4935530944,5.889366573,1
14.10735246,-3.718184792,3.479238032,0.1356602271,5.766155302,1
14.11736646,-2.946179248,3.3798115385000003,0.1857848985,5.040525391,1
14.12737946,-1.972771624,3.280385045,0.7147120397,3.894042529,1
14.13739346,-0.9165048605,2.254821426,1.071829566,2.659514889,1
14.14740746,0.06605774939,1.533060422,0.9773632658,1.819306691,1
14.15742146,0.7194086695,1.193055357,0.9549906492,1.689063959,1
14.16743446,0.9900388598,1.177136897,0.9697560382,1.818311027,1
14.17744846,1.149529853,1.29095295,0.7495873189,1.884107096,1
14.18746246,1.403045243,1.413876625,0.5341349638,2.062251979,1
14.19747646,1.773530089,1.482122988,0.3355458324,2.335527464,1
14.20749046,2.035972424,1.530409294,0.1750222211,2.553031354,1
14.21750346,2.167972147,1.554375277,0.1324207234,2.670902653,1
14.22751746,2.683466188,1.659861386,0.04707476377,3.155684813,1
14.23753146,3.135239611,1.830497172,-0.03641762853,3.630671227,1
14.24754546,3.473663004,1.894086812,-0.1091558218,3.958006381,1
14.25755846,3.75462464,1.780825076,-0.2270448987,4.161741645,1
14.26757246,3.917155015,1.426972927,-0.2827945916,4.178555723,1
14.27758646,4.175850454,1.821517311,-0.14426689,4.558120804,1
14.28760046,4.222276177,1.989507232,-0.7046899121,4.720417673,1
14.29761346,4.200312865,2.009924247,-0.9742057693,4.757257669,1
14.30762746,4.375726996,2.052243471,-0.8276010163,4.903428744,1
14.31764146,4.379616564,2.062903529,-0.9149876542,4.926846316,1
14.32765546,4.049890319,2.006005736,-1.01021994,4.631005823,1
14.33766946,3.370998176,1.715218439,-1.283998271,3.994277727,1
14.34768246,2.917679334,1.416605228,-1.452090665,3.55361652,1
14.35769646,2.671434957,1.125539019,-1.494603431,3.261478534,1
14.36771046,2.321529386,0.7721754053,-1.433761982,2.835740991,1
14.37772446,1.867855618,0.3032903981,-1.459958678,2.390052095,1
14.38773746,1.163287182,-0.2114423347,-1.58338843,1.97612344,1
14.39775146,0.2468630129,-0.6835693306,-1.840085875,1.978414619,1
14.40776546,-0.5593224299,-1.009299003,-1.976193999,2.288420587,1
14.41777946,-1.425509076,-1.33128295,-1.690142362,2.580885821,1
14.42779246,-2.398343673,-1.779164759,-2.011918148,3.600735237,1
14.43780646,-3.051429715,-2.370107761,-2.445371075,4.572578463,1
14.44782046,-3.550686037,-2.953648774,-2.513949559,5.258455552,1
14.45783446,-3.861911107,-3.407956965,-2.941424292,5.931315616,1
14.46784846,-3.668853588,-3.658188851,-3.688692605,6.359975271,1
14.47786146,-3.398750231,-3.424210762,-4.410761466,6.536936529,1
14.48787546,-3.038708512,-2.879526837,-5.263607397,6.725398654,1
14.49788946,-2.604575554,-2.375193962,-4.2637984245,6.474053128,1
14.50790346,-2.729062775,-1.866406678,-3.263989452,4.64595358,1
14.51791646,-3.49337046,-1.470671216,-1.242789142,3.988863979,1
14.52793046,-4.345668215,-1.768205615,-0.4892515902,4.717070112,1
14.53794446,-4.785276505,-1.200539208,1.979414792,5.315848807,1
14.54795846,-5.565930081,-0.8072408652,3.228430195,6.484903778,1
14.55797146,-6.405306074,-0.6927237314,3.101844993,7.150472322,1
14.56798546,-6.171575323,-0.376823228,2.830319009,6.80007672,1
14.57799946,-4.365337663,-0.1101095027,2.538549964,5.050993263,1
14.58801346,-1.689949989,0.2027340764,2.756841727,3.239939564,1
14.59802725,0.5778955257,0.1662883812,3.184786577,3.241061648,1
14.60804025,1.538983651,0.0946009326,3.557921966,3.877657635,1
14.61805425,0.7330467153,0.2149372154,3.879096658,3.953599167,1
14.62806825,-0.3480929339,0.5866254187,3.630144435,3.693676582,1
14.63808225,-0.8697288895,0.8493221068,2.758362004,3.014355209,1
14.64809525,-0.9896932894,0.9071674418,1.528283393,2.034230986,1
14.65810925,-0.8312852007,0.776024335,0.6103383632,1.290643937,1
14.66812325,-0.4651384038,0.4509799558,0.428984777,0.7770229045,1
14.67813725,-0.2375004512,-0.1266705716,0.7085517056,0.7579560789,1
14.68815025,-0.3118717718,-0.6319045025,1.265959757,1.44886901,1
14.69816425,-0.2715809476,-0.7547545034,1.88978984,2.052977401,1
14.70817825,5.204021931e-05,-0.6261134201,1.993252812,2.08927614,1
14.71819225,0.5049310452,-0.3200058335,1.712186511,1.813543973,1
14.72820625,1.157884939,0.1072969919,1.372783709,1.799095687,1
14.73821925,2.002003609,0.6483410257,1.137361943,2.392061188,1
14.74823325,2.612096828,1.045220203,0.9658430815,2.974624005,1
14.75824725,2.753010632,1.744561229,1.269826959,3.497859621,1
14.76826125,3.297945403,2.38460681,1.348483558,4.287330338,1
14.77827425,3.608363557,2.111884485,0.9171439612,4.280361747,1
14.78828825,3.377869824,1.908270988,0.9821685076,4.002019202,1
14.79830225,3.315273626,1.856547103,1.034329472,3.937974583,1
14.80831625,3.409176401,1.991144745,0.7429941447,4.017360008,1
14.81832925,3.505215749,2.137766016,0.4665576692,4.132100803,1
14.82834325,3.600155236,2.329397984,0.1295263517,4.289987152,1
14.83835725,3.550853852,2.471368965,-0.2967695832,4.33639249,1
14.84837125,3.41438861,2.458155427,-0.6401743658,4.255631669,1
14.85838425,3.317342956,2.261851241,-0.7834368503,4.090783375,1
14.86839825,3.320758315,1.832756244,-0.9982305166,3.922103441,1
14.87841225,3.414531866,1.273285587,-1.353892233,3.887583855,1
14.88842625,3.441077056,0.8282154125,-1.426860806,3.816134672,1
14.89843925,3.325972277,0.4270437938,-1.043553747,3.511902962,1
14.90845325,2.913938286,0.1090713295,-0.3407321665,2.935818676,1
14.91846725,2.30656987,-0.1902660584,-0.03343452528,2.31464546,1
14.92848125,1.537997226,-0.5924621093,-0.4957500395,1.721108631,1
14.93849525,0.826044926,-1.185793115,-1.436305375,2.0375055,1
14.94850825,0.1748025119,-1.85418629,-2.166438861,2.85692493,1
14.95852225,-0.433542974,-2.619096822,-2.756190348,3.826775785,1
14.96853625,-0.8176746368,-3.292223025,-2.428314747,4.171814565,1
14.97855025,-1.205595295,-3.81746759,-1.918635324,4.43933332,1
14.98856325,-1.613323397,-4.022923838,-2.201078936,4.861221767,1
14.99857725,-1.895414715,-3.822339782,-3.104228318,5.276278215,1
15.00859125,-2.078647158,-3.599941812,-3.626148156,5.516276416,1
15.01860525,-2.20241868,-3.464616484,-3.214209766,5.213958175,1
15.02861825,-2.279886686,-3.470589123,-2.826988435,5.023418733,1
15.03863225,-2.420172499,-3.366554877,-2.570209129,4.878206805,1
15.04864625,-2.729006642,-3.083725056,-1.726976166,4.465342557,1
15.05866025,-3.532334551,-2.779535356,-0.4345416784,4.515753608,1
15.06867425,-4.113365353,-2.127028189,0.6019180803,4.669724705,1
15.07868725,-4.301622893,-2.195146497,0.8563047056,4.90467995,1
15.08870125,-4.723531662,-2.719375693,1.43278886,5.635569132,1
15.09871525,-4.60784567,-2.838619131,1.871459696,5.726461533,1
15.10872925,-4.027923499,-2.64150306,1.911418544,5.182202908,1
15.11874225,-2.783725471,-2.130287427,2.285453235,4.184560731,1
15.12875625,-1.440950988,-0.839216364,3.464098713,3.844555078,1
15.13877025,-1.188812032,0.6134717399,4.317878737,4.520364854,1
15.14878425,-1.937853221,1.737658006,4.282297553,5.011267583,1
15.15879725,-3.046966535,2.758069058,3.439670216,5.359317231,1
15.16881125,-3.914869924,3.624400131,2.225595288,5.780636402,1
15.17882525,-4.234577549,3.50952222375,1.160466777,6.128049424,1
15.18883925,-3.854850594,3.3946443165,0.2659266901,5.885765829,1
15.19885225,-3.165593677,3.27976640925,-0.1057948422,5.055673201,1
15.20886625,-2.25085409,3.164888502,0.5635523057,3.924341291,1
15.21888025,-1.098405308,2.39447691,1.164770036,2.880399821,1
15.22889425,-0.1209730446,1.699984396,1.227833426,2.100513353,1
15.23890825,0.4129180902,1.412598424,1.18869348,1.891805446,1
15.24892125,0.548689853,1.534984156,1.213042309,2.03192238,1
15.25893525,0.7891332078,1.671680363,0.7109723067,1.980587811,1
15.26894925,1.145008201,1.718698409,-0.004517412633,2.065184837,1
15.27896325,1.553523338,1.751808268,-0.282771349,2.358437323,1
15.28897625,2.040071906,1.774239357,-0.2232779762,2.712871492,1
15.29899025,2.592810956,1.830405371,0.0668747516,3.174511728,1
15.30900425,3.144151937,1.870573404,0.4062202509,3.680998662,1
15.31901825,3.480762109,1.203563388,0.2741702409,3.693161113,1
15.32903125,3.903378391,1.471241904,0.465913306,4.19737904,1
15.33904525,4.068807816,1.859611044,0.5833813834,4.511505748,1
15.34905925,4.168421566,1.895521719,0.571438884,4.614681283,1
15.35907325,4.087062823,1.925375848,0.8326378079,4.593956943,1
15.36908625,4.045209623,1.974590693,0.7764795408,4.567893363,1
15.37910025,4.288507004,2.030064397,0.3758904509,4.759595299,1
15.38911425,4.273931065,1.953975749,-0.2021056469,4.703759631,1
15.39912825,3.897371546,1.659454128,-0.8687021184,4.324111046,1
15.40914125,3.548838902,1.310037384,-1.692530219,4.144286916,1
15.41915525,3.256458823,0.9474126577,-2.533666078,4.233388549,1
15.42916925,3.085075178,0.5967112809,-3.08129086,4.400921105,1
15.43918325,3.102126828,0.2312874922,-3.16772908,4.439728853,1
15.44919725,2.99067539,-0.2396206516,-2.211487126,3.727228549,1
15.45921025,2.70079675,-0.7304394418,-0.9681374558,2.960597068,1
15.46922425,2.110491679,-1.007200438,-0.3465702458,2.36405135,1
15.47923825,1.31288644,-0.7966892722,-0.636953427,1.662556546,1
15.48925225,0.7536324227,-0.1341973999,-1.24379384,1.46047728,1
15.49926525,0.02833619177,0.3502227822,-1.251626916,1.300011105,1
15.50927925,-0.7448715395,-0.1063459423,-1.51672564,1.693103582,1
15.51929325,-1.443512653,-1.252490257,-2.035613551,2.7921646,1
15.52930725,-2.527320387,-1.251336309,-1.424187605,3.159351394,1
15.53932025,-3.776903701,-1.613053256,-1.328130716,4.316349565,1
15.54933425,-4.805154115,-2.280390423,-2.026422751,5.691755065,1
15.55934825,-4.896470082,-2.957272293,-3.142550969,6.526599825,1
15.56936225,-4.328134754,-3.499811752,-4.072683935,6.89696942,1
15.57937525,-3.699115267,-3.510207517,-4.30088439,6.67102819,1
15.58938925,-3.139356635,-3.143974474,-4.341230178,6.211796442,1
15.59940313,-3.135169444,-2.578538195,-3.454185344,5.330060324,1
15.60941713,-3.999819442,-2.365765619,-2.653983357,5.351544655,1
15.61943012,-4.919975889,-2.600409705,-2.492713641,6.09769749,1
15.62944412,-5.406557786,-2.136406246,0.1057129812,5.814316295,1
15.63945812,-5.069762843,-1.228286585,3.255470059,6.148924176,1
15.64947212,-5.376667989,-0.9040219322,3.279633093,6.362531536,1
15.65948612,-5.219214166,-0.3520500371,2.992214377,6.02639881,1
15.66949912,-3.152041,0.09869866133,2.386676724,3.954912095,1
15.67951312,-0.7409141439,0.3890289983,2.279427972,2.428186403,1
15.68952712,1.190165663,0.3311465335,2.42961853,2.725655615,1
15.69954112,1.998146785,0.4494573408,3.066834204,3.687827886,1
15.70955412,1.238114585,0.8284858462,4.040100911,4.306011135,1
15.71956812,0.1207777476,1.001262883,4.209335704,4.328466437,1
15.72958212,-0.6658160144,0.7927757308,3.024184613,3.196481957,1
15.73959612,-1.01170981,0.3551464301,1.566464249,1.898287642,1
15.74960913,-0.7365854502,0.4017379215,0.3956705582,0.9276349894,1
15.75962313,-0.6500098211,0.3358821934,0.3903088076,0.8292590552,1
15.76963713,-0.7750203681,-0.1371315327,0.6591308928,1.026603703,1
15.77965113,-0.5148005605,-0.6291835007,1.09399066,1.362977277,1
15.78966413,-0.02064651847,-0.8230277628,1.324611716,1.559614431,1
15.79967813,0.3563655746,-1.015391217,1.335148544,1.714828674,1
15.80969213,0.7450586504,-1.050828268,1.058252624,1.667108592,1
15.81970613,1.275066649,-0.8450761512,0.8880939706,1.768801731,1
15.82972013,1.982808954,-0.01258028448,1.042965663,2.240416699,1
15.83973313,2.5262942,0.4944472799,0.7728395028,2.687735366,1
15.84974713,3.161108277,0.6382677349,0.4766931597,3.259942885,1
15.85976113,3.72891911,0.8010314146,0.5626051299,3.855257915,1
15.86977513,4.062189937,1.022537977,0.6563123886,4.240013791,1
15.87978813,4.298193501,1.25300335,0.6253315012,4.520566807,1
15.88980213,4.321339704,1.442591132,0.607886041,4.596147458,1
15.89981613,4.178032635,1.562944079,0.3764497371,4.476657827,1
15.90983013,3.987003515,1.676673593,0.08217676878,4.325989411,1
15.91984313,3.834192381,1.872305641,-0.1588441448,4.269870149,1
15.92985713,3.774694038,2.037944689,-0.2654144009,4.297903959,1
15.93987113,3.663154306,2.090991799,-0.3354114195,4.231246506,1
15.94988513,3.438431776,1.955420011,-0.4333850992,3.979233989,1
15.95989813,3.266664553,1.728362687,-0.5330649233,3.733964796,1
15.96991213,3.097719782,1.419368915,-0.5976637924,3.459433187,1
15.97992613,2.87863923,1.077486016,-0.579912742,3.127912837,1
15.98994013,2.542474616,0.7916861022,-0.4780331223,2.705450003,1
15.99995313,1.976511503,0.295745151,-0.5329093143,2.068346019,1
16.00996713,1.397119675,-0.1916433701,-0.6526872611,1.553921242,1
16.01998113,0.782003113,-0.7074873662,-0.7912836675,1.318407025,1
16.02999513,0.1430766892,-1.290042538,-1.169294465,1.746977457,1
16.04000813,-0.3094603801,-1.810020223,-1.834416415,2.595577492,1
16.05002213,-0.4430213106,-2.143427875,-2.384278196,3.23656198,1
16.06003613,-0.6490584791,-2.356111281,-2.415834303,3.43639239,1
16.07005013,-1.164385874,-2.495153684,-1.955784878,3.377377808,1
16.08006413,-1.669505784,-2.658732466,-1.624996047,3.535070019,1
16.09007713,-1.931248791,-2.833931711,-1.957947032,3.948980554,1
16.10009113,-1.919320471,-2.949607471,-3.070149575,4.670095686,1
16.11010513,-1.812290697,-3.073958452,-4.119968029,5.450482061,1
16.12011913,-1.8591994,-3.220252571,-3.982352639,5.448465984,1
16.13013212,-2.147571797,-3.369940707,-2.86679394,4.91803543,1
16.14014612,-2.563805258,-3.350122155,-1.757573622,4.570063554,1
16.15016012,-3.033889237,-2.947979021,-0.6416675985,4.278644823,1
16.16017412,-3.661536967,-1.944581612,0.4255075841,4.167650094,1
16.17018712,-4.742978917,-2.415385676,0.9136672068,5.400437457,1
16.18020112,-5.381962059,-3.157936455,1.825489032,6.501575845,1
16.19021512,-5.273917208,-3.376634015,2.356126338,6.690828895,1
16.20022912,-3.962346976,-3.039061976,2.769664671,5.710265637,1
16.21024212,-2.459716049,-1.988255635,4.160510284,5.226204104,1
16.22025612,-1.978598959,-0.6346839765,4.260566279,5.903427038,1
16.23027012,-2.449248363,0.5745810315,4.360622274,6.196769892,1
16.24028412,-3.517219498,1.663381995,4.460678269,5.919064392,1
16.25029812,-4.449742806,2.728875957,2.533678064,5.802283995,1
16.26031113,-4.946322858,3.595642939,1.02010612,6.199626961,1
16.27032513,-4.771274763,3.843012613,0.1521704252,6.128373736,1
16.28033913,-4.194988976,3.661725734,0.2065666339,6.045525336,1
16.29035313,-2.84188714,3.480438855,0.94243083,5.155856594,1
16.30036613,-1.77760209,3.299151976,1.587378863,4.069894913,1
16.31038013,-0.9744180232,2.582395896,1.754068801,3.270323594,1
16.32039413,0.02726205826,2.130033366,1.586450032,2.656051405,1
16.33040813,0.7029557741,1.928412892,1.282294246,2.420165621,1
16.34042113,1.258799111,1.938359005,0.9050180054,2.482109672,1
16.35043513,1.796647641,2.037296233,0.4683444321,2.756422536,1
16.36044913,2.333132601,2.03491934,0.1244125231,3.098367785,1
16.37046313,2.7988376,1.919068456,-0.01333618328,3.393595955,1
16.38047613,3.085420164,1.721312992,0.06269486949,3.533647782,1
16.39049013,3.363507308,1.651893678,0.2306223714,3.754346923,1
16.40050413,3.609309636,1.615533937,0.3639400578,3.971085282,1
16.41051813,3.817224931,1.639549621,0.3894315791,4.172647371,1
16.42053213,3.978549026,1.695704526,0.3150139193,4.336300262,1
16.43054513,4.355360559,1.758389309,0.2819856293,4.705381436,1
16.44055913,4.48843851,1.818819698,0.2843281701,4.85129136,1
16.45057313,4.335965345,1.448143063,0.05031280562,4.571678596,1
16.46058713,4.229595137,1.764548474,0.0911195004,4.583820361,1
16.47060013,4.174372863,2.025530173,-0.4647413778,4.663061851,1
16.48061413,4.306297157,2.268925495,-1.230628834,5.020624009,1
16.49062813,4.449511841,2.307779074,-1.632577693,5.271556677,1
16.50064213,4.184849904,2.153227808,-1.795848327,5.037303835,1
16.51065513,3.967243434,1.93295764,-1.987667406,4.840058617,1
16.52066913,3.40383497,1.702395787,-2.070182143,4.332424036,1
16.53068313,2.738633498,1.402214354,-1.942756112,3.638766252,1
16.54069713,2.165513978,1.060555111,-1.864555303,3.048080447,1
16.55071013,1.764250558,0.8066678381,-1.918185673,2.7281366,1
16.56072413,1.103659616,0.4763212037,-2.085201302,2.406867446,1
16.57073813,0.1603587198,-0.06310665965,-1.824815433,1.83293446,1
16.58075213,-1.082143031,-0.734052144,-1.016679798,1.65635259,1
16.59076613,-2.51125984,-1.668576077,-0.8377551448,3.129281992,1
16.60077908,-3.760338539,-2.897488314,-1.692286098,5.039783397,1
16.61079308,-4.560333534,-4.062150176,-2.92095319,6.769761705,1
16.62080708,-5.043716421,-3.95013543125,-3.904301666,8.022842217,1
16.63082108,-5.005417158,-3.8381206865,-4.878750679,8.229144536500002,1
16.64083408,-4.349104038,-3.72610594175,-4.778817865666667,8.435446856,1
16.65084808,-3.500690589,-3.614091197,-4.678885052333333,7.521316411,1
16.66086208,-2.592890478,-2.654637076,-4.578952239,5.89380884,1
16.67087608,-1.969913505,-1.789100347,-2.687160459,3.78183429,1
16.68088908,-2.779313162,-1.413429021,-1.384751498,3.411729761,1
16.69090308,-4.246003593,-1.816849771,-1.728002791,4.931073235,1
16.70091708,-5.014396727,-1.823364446,-0.01564451784,5.335642154,1
16.71093108,-4.641044991,-0.8533362204,3.104001446,5.648212663,1
16.72094408,-4.450005931,-0.214946571,3.324331548,5.558771002,1
16.73095808,-4.218419938,-0.09778211027,3.241558071,5.320932892,1
16.74097208,-3.247729515,0.1554923746,3.4083651,4.710507142,1
16.75098608,-1.632410463,0.4000439832,2.984253978,3.424992104,1
16.76100008,-0.2414449829,0.5256652719,2.630229628,2.69308885,1
16.77101308,0.6268583554,0.6322649834,2.663751715,2.808608839,1
16.78102708,0.2736385828,0.7070049709,3.199509866,3.288099373,1
16.79104108,-0.6683402574,0.7408197114,3.231292992,3.381825978,1
16.80105508,-1.039476483,0.7640737957,2.829362404,3.109599932,1
16.81106808,-1.104555994,0.7073560962,2.559963638,2.876423198,1
16.82108208,-1.21558234,0.6327155113,2.180391634,2.57528193,1
16.83109608,-1.176001368,0.5922519019,1.698964933,2.149470488,1
16.84111008,-1.18252686,0.1786838937,1.156861092,1.663918656,1
16.85112308,-1.028877236,-0.1754316723,1.088115377,1.507766465,1
16.86113708,-0.8825272751,-0.4241310033,1.339985069,1.659608835,1
16.87115108,-0.5026816213,-0.5569575235,1.438326319,1.622243229,1
16.88116508,0.2195746422,-0.5274033567,1.340636741,1.457283155,1
16.89117808,1.118981659,-0.2641514754,1.166445555,1.637831246,1
16.90119208,2.085545118,0.219285205,1.051662373,2.345970628,1
16.91120608,2.743549837,1.263758134,1.254388848,3.270724952,1
16.92122008,3.34510846,1.725934631,1.086226727,3.917714826,1
16.93123408,3.614665101,1.870548846,1.069468753,4.20814926,1
16.94124708,3.96096294,2.034920509,1.134107237,4.595250604,1
16.95126108,4.1766562,2.135585589,1.075498402,4.81267905,1
16.96127508,4.421221842,2.147174771,0.7596044764,4.973385269,1
16.97128908,4.20440884,2.044811952,0.3890827927,4.69144914,1
16.98130208,3.833602982,1.975637929,0.1042450377,4.313991664,1
16.99131608,3.665831746,1.842403858,-0.07595518515,4.103479445,1
17.00133008,3.424621237,1.675098061,-0.2375722258,3.819741443,1
17.01134408,3.129811056,1.523740837,-0.427908597,3.507222427,1
17.02135708,2.909071648,1.377331527,-0.5315540028,3.262252236,1
17.03137108,2.918275166,1.073582415,-0.5698731458,3.161275778,1
17.04138508,2.902597611,0.669216755,-0.2949591391,2.993313356,1
17.05139908,2.752330016,0.2576473251,-0.06476244494,2.765121486,1
17.06141208,2.524002677,-0.07353516877,-0.1817032497,2.531602853,1
17.07142608,2.006795402,-0.3574958414,-0.6177347986,2.129935995,1
17.08144008,1.442649019,-0.5878401777,-1.06620586,1.887746594,1
17.09145408,0.8039067829,-0.8879561225,-1.371289015,1.820759664,1
17.10146708,0.1884943521,-1.297316767,-1.468290814,1.968359426,1
17.11148108,-0.2035310519,-1.678660477,-1.632936566,2.350703664,1
17.12149508,-0.3908811039,-2.018512345,-2.127235473,2.958430476,1
17.13150908,-0.4755610657,-2.26456815,-2.540711095,3.436515692,1
17.14152308,-0.8277891505,-2.427232719,-2.202958378,3.380786767,1
17.15153608,-1.257563009,-2.491221139,-1.997192081,3.431679428,1
17.16155008,-1.603643916,-2.42790281,-2.38035106,3.759316033,1
17.17156408,-1.788272089,-2.344895152,-3.139957144,4.307642187,1
17.18157808,-1.917866269,-2.429644988,-3.518887124,4.686571496,1
17.19159108,-1.968624778,-2.615689942,-2.966500661,4.417855086,1
17.20160508,-1.927819399,-2.808382887,-2.193538367,4.051556817,1
17.21161908,-1.945234162,-3.012504215,-1.90870529,4.062299038,1
17.22163308,-1.610964046,-2.502156309,-1.655553596,3.405414668,1
17.23164608,-1.357977244,-1.633823735,-0.7834428437,2.264346458,1
17.24166008,-2.291797464,-1.829021043,-0.03022074938,2.932331305,1
17.25167408,-3.44675938,-1.939931029,0.3468686731,3.970365285,1
17.26168808,-4.043680576,-2.168015417,0.9528483756,4.686103229,1
17.27170108,-3.854652958,-2.355309043,1.815641152,4.868509311,1
17.28171508,-3.35790626,-2.259729579,2.385679481,4.698231456,1
17.29172908,-2.877463354,-1.947674205,2.539814132,4.303938428,1
17.30174308,-2.126668001,-0.8414701733,3.22657195,3.95494063,1
17.31175708,-2.061185033,0.2333471739,4.014467594,4.518726005,1
17.32177008,-2.648484635,1.226697897,4.107088952,5.038594869,1
17.33178408,-3.343281205,2.225492962,3.175709067,5.120105098,1
17.34179808,-4.042941488,2.972963881,1.753459668,5.315873486,1
17.35181208,-4.589897057,3.357249618,0.4502847219,5.704475114,1
17.36182508,-4.450989432,3.271385595,-0.1364877543,5.525567803,1
17.37183908,-3.773534535,2.770187705,0.008840697706,4.681194395,1
17.38185308,-2.480098858,2.077689968,0.8198404455,3.337637534,1
17.39186708,-1.201349047,1.301486709,1.502851513,2.322858122,1
17.40188008,-0.4647238362,0.9428047594,1.764206704,2.053600339,1
17.41189408,-0.02071726978,1.153619395,1.570363465,1.948668347,1
17.42190808,0.319681313,1.37469034,0.9787610427,1.717539767,1
17.43192208,0.8918296105,1.484593436,0.5300022979,1.811154372,1
17.44193608,1.339922211,1.464555028,0.3434593078,2.014516631,1
17.45194908,1.7011936,1.37356709,0.2334000912,2.198913781,1
17.46196308,2.073102243,1.295663466,0.3429637563,2.468627324,1
17.47197708,2.372756842,1.350378495,0.3051008423,2.747104591,1
17.48199108,2.859946266,1.504480401,0.3908140071,3.255071352,1
17.49200408,3.339188154,1.568686337,0.5427946901,3.729018695,1
17.50201808,3.762827699,1.582962899,0.6968312542,4.141282123,1
17.51203208,4.041632881,1.500275961,0.5951201074,4.351987161,1
17.52204608,4.225537169,1.393965102,0.5162342978,4.479375059,1
17.53205908,4.278088435,1.310112813,0.4901010445,4.500959373,1
17.54207308,4.37302032,1.309932719,0.3324892004,4.577092911,1
17.55208708,4.339412863,1.310150528,0.05190938786,4.53317692,1
17.56210108,4.248886271,1.390267615,-0.3686925285,4.485734361,1
17.57211408,4.279186542,1.76389037,-0.947838335,4.724525818,1
17.58212808,4.35031792,2.210640742,-1.773744828,5.192144953,1
17.59214208,4.230614306,2.426737753,-2.323388947,5.402341134,1
17.60215563,3.757530121,2.423456295,-1.998283318,4.897479887,1
17.61216862,2.997903133,2.220660531,-0.9860425803,3.85889056,1
17.62218262,2.1586856,1.91192579,-0.1537934661,2.887738938,1
17.63219662,1.430634161,1.520823661,-0.1761997041,2.095391383,1
17.64221062,0.7063658702,1.152452291,-0.8125198777,1.577113686,1
17.65222462,-0.1757357275,0.7970570621,-1.462095104,1.674486518,1
17.66223762,-0.9907954895,0.3645361814,-2.124906381,2.372717737,1
17.67225162,-1.565368627,-0.5983946943,-2.165583121,2.738285121,1
17.68226562,-2.597146082,-2.764061869,-2.357669857,4.465849633,1
17.69227962,-3.760936124,-2.761474769,-2.392227047,5.243389522,1
17.70229262,-4.014890056,-2.531858703,-2.056304508,5.172817306,1
17.71230662,-4.077382758,-2.651846784,-2.281922686,5.372570397,1
17.72232062,-3.937886903,-2.974128939,-3.477275999,6.036873742,1
17.73233462,-3.709954836,-3.066538043,-4.233311627,6.410019328,1
17.74234762,-3.014274752,-3.007929061,-4.56101415,6.239899006,1
17.75236162,-2.257226386,-2.778818195,-4.96405337,6.120353534,1
17.76237562,-1.250276209,-2.533560535,-5.04270953,6.132429199,1
17.77238962,-0.09812972724,-2.394824527,-5.12136569,5.654484989,1
17.78240263,0.08252292395,-2.668992282,-2.525742223,3.675554872,1
17.79241663,-1.480443082,-2.439062221,0.5960138543,2.914784513,1
17.80243063,-2.664890753,-1.545311508,2.901319702,4.231700178,1
17.81244463,-3.047316198,-0.7729481149,3.814567079,4.943127229,1
17.82245763,-2.985193625,-0.194415535,3.720913395,4.774345492,1
17.83247163,-2.771251021,0.326252414,3.539169946,4.506883265,1
17.84248563,-3.498742297,0.4582135463,3.435316671,4.924688614,1
17.85249963,-4.081869911,0.5678739828,2.886420704,5.031457772,1
17.86251363,-3.602261403,0.7193516591,2.510547649,4.449337425,1
17.87252663,-1.944383392,0.7996251592,2.6877674,3.412348277,1
17.88254063,-0.2923964506,0.3174254572,3.529830773,3.556115843,1
17.89255463,-0.1230821353,-0.6376303884,4.027300186,4.079322065,1
17.90256863,-0.7341231877,-1.39411596,3.96393391,4.265591191,1
17.91258163,-1.776520355,-1.584118017,2.99798821,3.827974369,1
17.92259563,-2.197919832,-1.099956281,1.641281128,2.955428759,1
17.93260963,-1.8372127,-0.3895938393,0.5882755029,1.968045205,1
17.94262363,-1.286946437,0.3318891299,0.09858844131,1.332704471,1
17.95263663,-1.137521426,0.5676047185,-0.4486814153,1.348126524,1
17.96265063,-0.5884994513,0.6898746756,-0.6152941708,1.095831004,1
17.97266463,-0.0433799082,0.7544329065,-0.353730673,0.8343717492,1
17.98267863,0.5685446584,1.058320305,0.09163785607,1.204857831,1
17.99269163,1.145791728,0.9991751343,0.2485851641,1.540449355,1
18.00270563,1.660369509,0.5336321032,0.5616345651,1.832218195,1
18.01271963,2.242845744,0.2297593224,1.183600263,2.546380953,1
18.02273363,2.841936842,0.3319426319,1.352926565,3.164996242,1
18.03274663,3.408671787,0.6069839618,1.342241509,3.713365744,1
18.04276063,3.783938486,0.9162768191,1.356920213,4.122982675,1
18.05277463,4.068845823,1.250222122,1.086375246,4.393036861,1
18.06278863,4.141782237,1.539684148,0.8539273739,4.500464346,1
18.07280263,3.92609073,1.699715424,0.6961215484,4.334490299,1
18.08281563,3.741574824,1.799475647,0.4935517788,4.18103912,1
18.09282963,3.759057999,1.895128494,0.3844450736,4.227271822,1
18.10284363,3.871026916,1.986499424,0.2592925854,4.358699576,1
18.11285763,3.970286325,2.030722793,0.3020601439,4.469703446,1
18.12287062,3.97461268,2.007896433,0.4153348175,4.472325687,1
18.13288462,3.895957689,1.872774296,0.3132237943,4.334037266,1
18.14289862,3.77083663,1.627888227,0.1048875006,4.10855575,1
18.15291262,3.605200213,1.241951528,-0.1084527672,3.814665671,1
18.16292562,3.307689203,0.8341026816,-0.4140577126,3.43627399,1
18.17293962,2.881069917,0.5393670523,-0.7128714093,3.01656532,1
18.18295362,2.252162113,0.2957173768,-1.045079797,2.500374918,1
18.19296762,1.556323569,-0.0148069042,-1.50240464,2.163234153,1
18.20298062,0.8293006557,-0.4560822362,-1.939626682,2.158217377,1
18.21299462,0.1081015688,-0.9867930704,-2.395560983,2.593098328,1
18.22300862,-0.692396872,-1.550947932,-2.353383701,2.902286643,1
18.23302262,-1.503585193,-2.121735582,-2.019994322,3.292857023,1
18.24303562,-2.208650057,-2.635167309,-1.842072759,3.900701716,1
18.25304962,-2.665774852,-3.08895656,-1.874936304,4.490366837,1
18.26306362,-2.799535757,-3.457275013,-2.300977592,5.008457732,1
18.27307762,-2.398914946,-3.730176262,-2.930084202,5.315486929,1
18.28309063,-2.061623574,-3.962474153,-3.548823699,5.704878861,1
18.29310463,-2.036406287,-4.0249613,-3.4806323,5.697549056,1
18.30311863,-2.100709872,-3.867472394,-2.781874827,5.206645007,1
18.31313263,-1.987391417,-3.395392175,-2.281575215,4.547966373,1
18.32314563,-2.074902601,-2.44675628,-1.690454311,3.626220191,1
18.33315963,-3.352646105,-1.593892515,-0.972024904,3.837389955,1
18.34317363,-5.151291155,-1.646323036,-0.3121875215,5.416977123,1
18.35318763,-5.659939275,-1.939710297,1.036589713,6.072224211,1
18.36320163,-5.319165886,-2.222928958,2.235217613,6.183133239,1
18.37321463,-4.473402979,-2.358920868,2.440493327,5.615322748,1
18.38322863,-2.918859887,-2.349264484,2.890019081,4.731912609,1
18.39324263,-1.542587875,-1.751426737,4.314335325,4.905156701,1
18.40325663,-1.16562139,-0.4904752663,4.773556931,5.657248287,1
18.41326963,-1.749965225,0.6960721394,5.232778537,5.561372666,1
18.42328363,-2.981233306,1.941981356,4.081938908,5.414911713,1
18.43329763,-3.992016917,3.207727251,2.594340588,5.740759207,1
18.44331163,-4.728644468,3.748552014,0.7915108319,6.085902571,1
18.45332463,-4.746024731,3.57928959275,-0.001975189447,6.54704339,1
18.46333863,-4.025020941,3.4100271715,-0.0587235868,6.336782125,1
18.47335263,-3.124626914,3.24076475025,0.2161703932,5.050860976,1
18.48336663,-2.06759592,3.071502329,0.786703105,3.78523199,1
18.49337963,-0.7884455752,2.191593729,1.125448534,2.586767075,1
18.50339363,0.05228112459,1.609211635,1.15727756,1.982822925,1
18.51340763,0.7484810257,1.336703904,1.210687197,1.952630191,1
18.52342163,1.426044096,1.476237765,1.115033766,2.335846742,1
18.53343563,1.625833515,1.750102927,0.7338220561,2.498937711,1
18.54344863,1.900393034,1.931845207,0.4173461866,2.741841977,1
18.55346263,2.222814353,1.936173901,0.06388316989,2.948517268,1
18.56347663,2.511070974,1.723829049,-0.1805992953,3.051176844,1
18.57349063,2.761489679,1.191472223,-0.4144164392,3.035979626,1
18.58350363,3.603955341,1.559343949,-0.06601243347,3.927391665,1
18.59351763,4.300896669,1.901159604,0.09217916206,4.703255999,1
18.60353225,4.680517205,2.055413246,0.2782960363,5.119513024,1
18.61354625,4.632724403,2.150208014,0.7060349178,5.155968891,1
18.62355925,5.022938924,2.224928121,0.9523746049,5.57559306,1
18.63357325,5.352121378,2.291660347,0.8667376001,5.886267447,1
18.64358725,5.588566992,2.348988788,0.5968720794,6.091476473,1
18.65360125,5.559912127,2.347032894,0.1311650339,6.036421997,1
18.66361425,5.087869331,2.178265878,-0.4040751998,5.549282235,1
18.67362825,4.308519684,1.880612488,-1.101082163,4.828294433,1
